trial_type,trial_index,time_elapsed,rt,stimulus,key_press,exp_phase,test_part,word,task,targ_cond,sq_pos,correctKeyCode,correct,value,response,Word,List,RecResp,serial_pos,colorChosen
pavlovia,0,2019,,"",,,,,,,,,,,,,,,,
external-html,1,18403,16249.799999952316,"",,,,,,,,,,,,,,,,
html-keyboard-response,2,20361,1957.0999999046326,"Welcome to the experiment. Press any key to begin.",39,,,,,,,,,,,,,,,
html-keyboard-response,3,28314,7952.5,"<p>You will see a list of words and colored squares in the following task.<p><p>Press the spacebar whenever you see a GREEN square.<p><p>Do not press a key if the square is RED.<p><p>Press the spacebar to continue.</p>",32,,,,,,,,,,,,,,,
html-keyboard-response,4,44728,15907.300000071526,"<p>Please try to remember as many of the words as you can, and try to think about the meaning of each word as it appears.<p><p>After the detection and encoding task you will be asked to solve some math problems for 24 seconds.<p> Please solve as many problems as you can in the time given. <p><p><p>Press the spacebar to continue.</p>",32,,,,,,,,,,,,,,,
html-keyboard-response,5,58742,13512.700000047684,"After solving the math problems, you will be asked to type in as many words <p>from the previous list as you can remember for 75 seconds.<p> If you finish recalling before the 75 seconds are up,<p> just sit tight and try to think of any more words you could have missed. <p><p><p>Press the spacebar to continue.</p>",32,,,,,,,,,,,,,,,
html-keyboard-response,6,68495,9251.899999976158,"There will be 16 lists of words and recall, followed  by<p><p> a recognition phase. The experiment is expected to take up to 90 minutes.<p>We will begin with a brief practice session.<p>Press the spacebar to begin the practice.</p>",32,,,,,,,,,,,,,,,
html-keyboard-response,7,70997,null,"<div style=""font-size:60px;"">+</div>",null,,,,,,,,,,,,,,,
html-keyboard-response,8,71199,null,"<div style=""font-size:42px;"">HAPPY</div><img id = ""stim"" ><div class = red_square id = ""bottomsquare"" ></div>",null,practice,word_square,HAPPY,prac_response,0,Bottom,none,true,,,,,,,
html-keyboard-response,9,71500,null,"<div style=""font-size:42px;"">HAPPY</div>",null,,word,HAPPY,,,,,,,,,,,,
html-keyboard-response,10,73008,null,"",null,,word,HAPPY,,,,,,,,,,,,
html-keyboard-response,11,73209,null,"<div style=""font-size:42px;"">COLD</div><img id = ""stim"" ><div class = green_square id = ""bottomsquare"" ></div>",null,practice,word_square,COLD,prac_response,1,Bottom,32,true,,,,,,,
html-keyboard-response,12,73510,300,"<div style=""font-size:42px;"">COLD</div>",32,,word,COLD,,,,,,,,,,,,
html-keyboard-response,13,75012,null,"",null,,word,COLD,,,,,,,,,,,,
html-keyboard-response,14,75213,null,"<div style=""font-size:42px;"">HEAVY</div><img id = ""stim"" ><div class = green_square id = ""topsquare"" ></div>",null,practice,word_square,HEAVY,prac_response,1,Top,32,true,,,,,,,
html-keyboard-response,15,75515,null,"<div style=""font-size:42px;"">HEAVY</div>",null,,word,HEAVY,,,,,,,,,,,,
html-keyboard-response,16,77016,220.10000002384186,"",32,,word,HEAVY,,,,,,,,,,,,
html-keyboard-response,17,77219,null,"<div style=""font-size:42px;"">FUNNY</div><img id = ""stim"" ><div class = red_square id = ""topsquare"" ></div>",null,practice,word_square,FUNNY,prac_response,0,Top,none,true,,,,,,,
html-keyboard-response,18,77520,null,"<div style=""font-size:42px;"">FUNNY</div>",null,,word,FUNNY,,,,,,,,,,,,
html-keyboard-response,19,79021,null,"",null,,word,FUNNY,,,,,,,,,,,,
html-keyboard-response,20,79222,null,"<div style=""font-size:42px;"">SCARY</div><img id = ""stim"" ><div class = green_square id = ""bottomsquare"" ></div>",null,practice,word_square,SCARY,prac_response,1,Bottom,32,true,,,,,,,
html-keyboard-response,21,79523,null,"<div style=""font-size:42px;"">SCARY</div>",null,,word,SCARY,,,,,,,,,,,,
html-keyboard-response,22,81024,60.5,"",32,,word,SCARY,,,,,,,,,,,,
html-keyboard-response,23,81226,null,"<div style=""font-size:42px;"">PEACEFUL</div><img id = ""stim"" ><div class = green_square id = ""topsquare"" ></div>",null,practice,word_square,PEACEFUL,prac_response,1,Top,32,true,,,,,,,
html-keyboard-response,24,81527,null,"<div style=""font-size:42px;"">PEACEFUL</div>",null,,word,PEACEFUL,,,,,,,,,,,,
html-keyboard-response,25,83028,31.600000023841858,"",32,,word,PEACEFUL,,,,,,,,,,,,
html-keyboard-response,26,83229,null,"<div style=""font-size:42px;"">LITTLE</div><img id = ""stim"" ><div class = red_square id = ""bottomsquare"" ></div>",null,practice,word_square,LITTLE,prac_response,0,Bottom,none,true,,,,,,,
html-keyboard-response,27,83532,null,"<div style=""font-size:42px;"">LITTLE</div>",null,,word,LITTLE,,,,,,,,,,,,
html-keyboard-response,28,85033,null,"",null,,word,LITTLE,,,,,,,,,,,,
html-keyboard-response,29,85234,null,"<div style=""font-size:42px;"">TIRED</div><img id = ""stim"" ><div class = red_square id = ""topsquare"" ></div>",null,practice,word_square,TIRED,prac_response,0,Top,none,true,,,,,,,
html-keyboard-response,30,85547,null,"<div style=""font-size:42px;"">TIRED</div>",null,,word,TIRED,,,,,,,,,,,,
html-keyboard-response,31,87048,null,"",null,,word,TIRED,,,,,,,,,,,,
html-keyboard-response,32,87249,null,"<div style=""font-size:42px;"">ENTERTAINING</div><img id = ""stim"" ><div class = red_square id = ""bottomsquare"" ></div>",null,practice,word_square,ENTERTAINING,prac_response,0,Bottom,none,true,,,,,,,
html-keyboard-response,33,87550,null,"<div style=""font-size:42px;"">ENTERTAINING</div>",null,,word,ENTERTAINING,,,,,,,,,,,,
html-keyboard-response,34,89058,null,"",null,,word,ENTERTAINING,,,,,,,,,,,,
html-keyboard-response,35,89259,null,"<div style=""font-size:42px;"">GRATEFUL</div><img id = ""stim"" ><div class = green_square id = ""bottomsquare"" ></div>",null,practice,word_square,GRATEFUL,prac_response,1,Bottom,32,true,,,,,,,
html-keyboard-response,36,89561,null,"<div style=""font-size:42px;"">GRATEFUL</div>",null,,word,GRATEFUL,,,,,,,,,,,,
html-keyboard-response,37,91062,57.700000047683716,"",32,,word,GRATEFUL,,,,,,,,,,,,
html-keyboard-response,38,91264,null,"<div style=""font-size:42px;"">LOUD</div><img id = ""stim"" ><div class = red_square id = ""topsquare"" ></div>",null,practice,word_square,LOUD,prac_response,0,Top,none,true,,,,,,,
html-keyboard-response,39,91565,null,"<div style=""font-size:42px;"">LOUD</div>",null,,word,LOUD,,,,,,,,,,,,
html-keyboard-response,40,93066,null,"",null,,word,LOUD,,,,,,,,,,,,
html-keyboard-response,41,93267,null,"<div style=""font-size:42px;"">SMART</div><img id = ""stim"" ><div class = green_square id = ""topsquare"" ></div>",null,practice,word_square,SMART,prac_response,1,Top,32,true,,,,,,,
html-keyboard-response,42,93569,null,"<div style=""font-size:42px;"">SMART</div>",null,,word,SMART,,,,,,,,,,,,
html-keyboard-response,43,95070,99.69999992847443,"",32,,word,SMART,,,,,,,,,,,,
html-keyboard-response,44,95271,null,"<div style=""font-size:42px;"">SMOOTH</div><img id = ""stim"" ><div class = green_square id = ""bottomsquare"" ></div>",null,practice,word_square,SMOOTH,prac_response,1,Bottom,32,true,,,,,,,
html-keyboard-response,45,95572,null,"<div style=""font-size:42px;"">SMOOTH</div>",null,,word,SMOOTH,,,,,,,,,,,,
html-keyboard-response,46,97074,218,"",32,,word,SMOOTH,,,,,,,,,,,,
html-keyboard-response,47,97276,null,"<div style=""font-size:42px;"">DISHONEST</div><img id = ""stim"" ><div class = red_square id = ""bottomsquare"" ></div>",null,practice,word_square,DISHONEST,prac_response,0,Bottom,none,true,,,,,,,
html-keyboard-response,48,97578,null,"<div style=""font-size:42px;"">DISHONEST</div>",null,,word,DISHONEST,,,,,,,,,,,,
html-keyboard-response,49,99079,null,"",null,,word,DISHONEST,,,,,,,,,,,,
html-keyboard-response,50,99281,null,"<div style=""font-size:42px;"">WEALTHY</div><img id = ""stim"" ><div class = green_square id = ""topsquare"" ></div>",null,practice,word_square,WEALTHY,prac_response,1,Top,32,true,,,,,,,
html-keyboard-response,51,99583,null,"<div style=""font-size:42px;"">WEALTHY</div>",null,,word,WEALTHY,,,,,,,,,,,,
html-keyboard-response,52,101084,3.799999952316284,"",32,,word,WEALTHY,,,,,,,,,,,,
html-keyboard-response,53,101285,null,"<div style=""font-size:42px;"">BEAUTIFUL</div><img id = ""stim"" ><div class = red_square id = ""topsquare"" ></div>",null,practice,word_square,BEAUTIFUL,prac_response,0,Top,none,true,,,,,,,
html-keyboard-response,54,101587,null,"<div style=""font-size:42px;"">BEAUTIFUL</div>",null,,word,BEAUTIFUL,,,,,,,,,,,,
html-keyboard-response,55,103088,null,"",null,,word,BEAUTIFUL,,,,,,,,,,,,
html-keyboard-response,56,112993,9903.399999976158,"<p> Good job! You responded correctly to 100% of the trials. </p>
                  <p>Be sure to only press the spacebar if you see a GREEN square, and please keep your accuracy above 80%.</p>
                  <p>We're going to try once more to make sure you understand the task. press any key to continue. </p>",32,,,,,,,,,,,,,,,
html-keyboard-response,57,116799,3805.0999999046326,"<p>You will see a list of words and colored squares in the following task.<p><p>Press the spacebar whenever you see a GREEN square.<p><p>Do not press a key if the square is RED<p><p>Press the spacebar to continue.</p>",39,,,,,,,,,,,,,,,
html-keyboard-response,58,119301,null,"<div style=""font-size:60px;"">+</div>",null,,,,,,,,,,,,,,,
html-keyboard-response,59,119502,null,"<div style=""font-size:42px;"">HAPPY</div><img id = ""stim"" ><div class = red_square id = ""bottomsquare"" ></div>",null,practice2,word_square,HAPPY,prac_response,0,Bottom,none,true,,,,,,,
html-keyboard-response,60,119803,null,"<div style=""font-size:42px;"">HAPPY</div>",null,,word,HAPPY,,,,,,,,,,,,
html-keyboard-response,61,121304,null,"",null,,word,HAPPY,,,,,,,,,,,,
html-keyboard-response,62,121506,null,"<div style=""font-size:42px;"">COLD</div><img id = ""stim"" ><div class = green_square id = ""bottomsquare"" ></div>",null,practice2,word_square,,prac_response,1,Bottom,32,true,,,,,,,
html-keyboard-response,63,121806,268,"<div style=""font-size:42px;"">COLD</div>",32,,word,COLD,,,,,,,,,,,,
html-keyboard-response,64,123308,null,"",null,,word,COLD,,,,,,,,,,,,
html-keyboard-response,65,123508,null,"<div style=""font-size:42px;"">HEAVY</div><img id = ""stim"" ><div class = green_square id = ""topsquare"" ></div>",null,practice2,word_square,,prac_response,1,Top,32,true,,,,,,,
html-keyboard-response,66,123810,300.39999997615814,"<div style=""font-size:42px;"">HEAVY</div>",32,,word,HEAVY,,,,,,,,,,,,
html-keyboard-response,67,125311,null,"",null,,word,HEAVY,,,,,,,,,,,,
html-keyboard-response,68,125512,null,"<div style=""font-size:42px;"">FUNNY</div><img id = ""stim"" ><div class = red_square id = ""topsquare"" ></div>",null,practice2,word_square,,prac_response,0,Top,none,true,,,,,,,
html-keyboard-response,69,125813,null,"<div style=""font-size:42px;"">FUNNY</div>",null,,word,FUNNY,,,,,,,,,,,,
html-keyboard-response,70,127315,null,"",null,,word,FUNNY,,,,,,,,,,,,
html-keyboard-response,71,127516,null,"<div style=""font-size:42px;"">SCARY</div><img id = ""stim"" ><div class = green_square id = ""bottomsquare"" ></div>",null,practice2,word_square,,prac_response,1,Bottom,32,true,,,,,,,
html-keyboard-response,72,127817,245.10000002384186,"<div style=""font-size:42px;"">SCARY</div>",32,,word,SCARY,,,,,,,,,,,,
html-keyboard-response,73,129318,null,"",null,,word,SCARY,,,,,,,,,,,,
html-keyboard-response,74,129520,null,"<div style=""font-size:42px;"">PEACEFUL</div><img id = ""stim"" ><div class = green_square id = ""topsquare"" ></div>",null,practice2,word_square,,prac_response,1,Top,32,true,,,,,,,
html-keyboard-response,75,129821,null,"<div style=""font-size:42px;"">PEACEFUL</div>",null,,word,PEACEFUL,,,,,,,,,,,,
html-keyboard-response,76,131322,81,"",32,,word,PEACEFUL,,,,,,,,,,,,
html-keyboard-response,77,131523,null,"<div style=""font-size:42px;"">LITTLE</div><img id = ""stim"" ><div class = red_square id = ""bottomsquare"" ></div>",null,practice2,word_square,LITTLE,prac_response,0,Bottom,none,true,,,,,,,
html-keyboard-response,78,131824,null,"<div style=""font-size:42px;"">LITTLE</div>",null,,word,LITTLE,,,,,,,,,,,,
html-keyboard-response,79,133325,null,"",null,,word,LITTLE,,,,,,,,,,,,
html-keyboard-response,80,133526,null,"<div style=""font-size:42px;"">TIRED</div><img id = ""stim"" ><div class = red_square id = ""topsquare"" ></div>",null,practice2,word_square,,prac_response,0,Top,none,true,,,,,,,
html-keyboard-response,81,133827,null,"<div style=""font-size:42px;"">TIRED</div>",null,,word,TIRED,,,,,,,,,,,,
html-keyboard-response,82,135328,null,"",null,,word,TIRED,,,,,,,,,,,,
html-keyboard-response,83,135529,null,"<div style=""font-size:42px;"">ENTERTAINING</div><img id = ""stim"" ><div class = red_square id = ""bottomsquare"" ></div>",null,practice2,word_square,ENTERTAINING,prac_response,0,Bottom,none,true,,,,,,,
html-keyboard-response,84,135830,null,"<div style=""font-size:42px;"">ENTERTAINING</div>",null,,word,ENTERTAINING,,,,,,,,,,,,
html-keyboard-response,85,137331,null,"",null,,word,ENTERTAINING,,,,,,,,,,,,
html-keyboard-response,86,137533,null,"<div style=""font-size:42px;"">GRATEFUL</div><img id = ""stim"" ><div class = green_square id = ""bottomsquare"" ></div>",null,practice2,word_square,,prac_response,1,Bottom,32,true,,,,,,,
html-keyboard-response,87,137833,221,"<div style=""font-size:42px;"">GRATEFUL</div>",32,,word,GRATEFUL,,,,,,,,,,,,
html-keyboard-response,88,139334,null,"",null,,word,GRATEFUL,,,,,,,,,,,,
html-keyboard-response,89,139535,null,"<div style=""font-size:42px;"">LOUD</div><img id = ""stim"" ><div class = red_square id = ""topsquare"" ></div>",null,practice2,word_square,,prac_response,0,Top,none,true,,,,,,,
html-keyboard-response,90,139836,null,"<div style=""font-size:42px;"">LOUD</div>",null,,word,LOUD,,,,,,,,,,,,
html-keyboard-response,91,141338,null,"",null,,word,LOUD,,,,,,,,,,,,
html-keyboard-response,92,141539,null,"<div style=""font-size:42px;"">SMART</div><img id = ""stim"" ><div class = green_square id = ""topsquare"" ></div>",null,practice2,word_square,,prac_response,1,Top,32,true,,,,,,,
html-keyboard-response,93,141840,260.7999999523163,"<div style=""font-size:42px;"">SMART</div>",32,,word,SMART,,,,,,,,,,,,
html-keyboard-response,94,143342,null,"",null,,word,SMART,,,,,,,,,,,,
html-keyboard-response,95,143543,null,"<div style=""font-size:42px;"">SMOOTH</div><img id = ""stim"" ><div class = green_square id = ""bottomsquare"" ></div>",null,practice2,word_square,,prac_response,1,Bottom,32,true,,,,,,,
html-keyboard-response,96,143844,null,"<div style=""font-size:42px;"">SMOOTH</div>",null,,word,SMOOTH,,,,,,,,,,,,
html-keyboard-response,97,145345,97.60000002384186,"",32,,word,SMOOTH,,,,,,,,,,,,
html-keyboard-response,98,145546,null,"<div style=""font-size:42px;"">DISHONEST</div><img id = ""stim"" ><div class = red_square id = ""bottomsquare"" ></div>",null,practice2,word_square,DISHONEST,prac_response,0,Bottom,none,true,,,,,,,
html-keyboard-response,99,145848,null,"<div style=""font-size:42px;"">DISHONEST</div>",null,,word,DISHONEST,,,,,,,,,,,,
html-keyboard-response,100,147350,null,"",null,,word,DISHONEST,,,,,,,,,,,,
html-keyboard-response,101,147551,null,"<div style=""font-size:42px;"">WEALTHY</div><img id = ""stim"" ><div class = green_square id = ""topsquare"" ></div>",null,practice2,word_square,,prac_response,1,Top,32,true,,,,,,,
html-keyboard-response,102,147852,null,"<div style=""font-size:42px;"">WEALTHY</div>",null,,word,WEALTHY,,,,,,,,,,,,
html-keyboard-response,103,149353,0,"",32,,word,WEALTHY,,,,,,,,,,,,
html-keyboard-response,104,149554,null,"<div style=""font-size:42px;"">BEAUTIFUL</div><img id = ""stim"" ><div class = red_square id = ""topsquare"" ></div>",null,practice2,word_square,,prac_response,0,Top,none,true,,,,,,,
html-keyboard-response,105,149855,null,"<div style=""font-size:42px;"">BEAUTIFUL</div>",null,,word,BEAUTIFUL,,,,,,,,,,,,
html-keyboard-response,106,151356,null,"",null,,word,BEAUTIFUL,,,,,,,,,,,,
html-keyboard-response,107,154888,3531.600000023842,"<p> Good job! You responded correctly to 100% of the trials. </p>
                    <p>Be sure to only press the spacebar if you see a GREEN square, and please keep your accuracy above 80%.</p>
                    <p>Press any key to begin the math and recall sections. Thank you! </p>",39,,,,,,,,,,,,,,,
call-function,108,154889,,"",,,,,,,,,,,,,,,,
html-keyboard-response,109,154990,null,"",null,,,,,,,,,,,,,,,
math-period,110,159761,8749.599999904633,"",,,,,,,,,,,6,,,,,
html-keyboard-response,111,159862,null,"",null,,,,,,,,,,,,,,,
math-period,112,163172,6377.499999880791,"",,,,,,,,,,,2,,,,,
html-keyboard-response,113,163273,null,"",null,,,,,,,,,,,,,,,
math-period,114,166623,10826.300000071526,"",,,,,,,,,,,1,,,,,
html-keyboard-response,115,166725,null,"",null,,,,,,,,,,,,,,,
math-period,116,168521,3278.3000000715256,"",,,,,,,,,,,2,,,,,
html-keyboard-response,117,168622,null,"",null,,,,,,,,,,,,,,,
math-period,118,170202,2881.6999999284744,"",,,,,,,,,,,1,,,,,
html-keyboard-response,119,170304,null,"",null,,,,,,,,,,,,,,,
math-period,120,173539,6158.200000047684,"",,,,,,,,,,,5,,,,,
html-keyboard-response,121,173641,null,"",null,,,,,,,,,,,,,,,
math-period,122,176754,5810.899999976158,"",,,,,,,,,,,4,,,,,
html-keyboard-response,123,176855,null,"",null,,,,,,,,,,,,,,,
math-period,124,178890,1760.1000000238419,"",,,,,,,,,,,5,,,,,
html-keyboard-response,125,179891,null,"Recall Period!",null,,,,,,,,,,,,,,,
call-function,126,179891,,"",,,,,,,,,,,,,,,,
html-keyboard-response,127,179992,null,"",null,,,,,,,,,,,,,,,
recall-period,128,185350,22148.299999713898,"",,,,,,,,,,,loud,,,,,
html-keyboard-response,129,185451,null,"",null,,,,,,,,,,,,,,,
recall-period,130,189988,20815.700000047684,"",,,,,,,,,,,smart,,,,,
html-keyboard-response,131,190090,null,"",null,,,,,,,,,,,,,,,
recall-period,132,193540,12753.400000214577,"",,,,,,,,,,,wealthy,,,,,
html-keyboard-response,133,193642,null,"",null,,,,,,,,,,,,,,,
recall-period,134,199062,24740.49999976158,"",,,,,,,,,,,beautiful,,,,,
html-keyboard-response,135,199164,null,"",null,,,,,,,,,,,,,,,
recall-period,136,212146,84214.50000011921,"",,,,,,,,,,,smooth,,,,,
html-keyboard-response,137,212247,null,"",null,,,,,,,,,,,,,,,
recall-period,138,232291,218761.49999916553,"",,,,,,,,,,,entertaining,,,,,
html-keyboard-response,139,232393,null,"",null,,,,,,,,,,,,,,,
recall-period,140,252295,180745.20000052452,"",,,,,,,,,,,dishonest,,,,,
html-keyboard-response,141,252396,null,"",null,,,,,,,,,,,,,,,
recall-period,142,254892,null,"",,,,,,,,,,,,,,,,
html-keyboard-response,143,255394,null,"Time's Up!",null,,,,,,,,,,,,,,,
html-keyboard-response,144,260392,4997.700000047684,"<p>We will now begin the experiment!<p><p>Please try to remember all words from each list.<p><p>Press the spacebar whenever you see a GREEN square.<p><p><p><p>Press the spacebar to begin.</p>",32,,,,,,,,,,,,,,,
html-keyboard-response,145,262675,1782.0999999046326,"<div style=""font-size:48px;"">Press any key to begin list 1 of 16 </div>",39,,,,,,,,,,,,,,,
html-keyboard-response,146,265189,null,"<div style=""font-size:60px;"">+</div>",null,,,,,,,,,,,,,,,
html-keyboard-response,147,265390,null,"<div style=""font-size:42px;"">DART</div><img id = ""stim"" ><div class = green_square id = topsquare></div>",null,encoding,word_square,,,1,topsquare,32,true,,,DART,0,,,
html-keyboard-response,148,265705,247.70000004768372,"<div style=""font-size:42px;"">DART</div>",32,,word,DART,,,,,,,,,,,,
html-keyboard-response,149,267206,null,"",null,,word,DART,,,,,,,,,,,,
html-keyboard-response,150,267407,null,"<div style=""font-size:42px;"">SLIME</div><img id = ""stim"" ><div class = red_square id = bottomsquare></div>",null,encoding,word_square,,,0,bottomsquare,none,true,,,SLIME,0,,,
html-keyboard-response,151,267709,null,"<div style=""font-size:42px;"">SLIME</div>",null,,word,SLIME,,,,,,,,,,,,
html-keyboard-response,152,269210,null,"",null,,word,SLIME,,,,,,,,,,,,
html-keyboard-response,153,269411,null,"<div style=""font-size:42px;"">SLEEVE</div><img id = ""stim"" ><div class = green_square id = bottomsquare></div>",null,encoding,word_square,,,1,bottomsquare,32,true,,,SLEEVE,0,,,
html-keyboard-response,154,269712,null,"<div style=""font-size:42px;"">SLEEVE</div>",null,,word,SLEEVE,,,,,,,,,,,,
html-keyboard-response,155,271213,122.89999997615814,"",32,,word,SLEEVE,,,,,,,,,,,,
html-keyboard-response,156,271415,null,"<div style=""font-size:42px;"">DRINK</div><img id = ""stim"" ><div class = red_square id = topsquare></div>",null,encoding,word_square,,,0,topsquare,none,true,,,DRINK,0,,,
html-keyboard-response,157,271716,null,"<div style=""font-size:42px;"">DRINK</div>",null,,word,DRINK,,,,,,,,,,,,
html-keyboard-response,158,273217,null,"",null,,word,DRINK,,,,,,,,,,,,
html-keyboard-response,159,273418,null,"<div style=""font-size:42px;"">VALVE</div><img id = ""stim"" ><div class = green_square id = topsquare></div>",null,encoding,word_square,,,1,topsquare,32,true,,,VALVE,0,,,
html-keyboard-response,160,273719,null,"<div style=""font-size:42px;"">VALVE</div>",null,,word,VALVE,,,,,,,,,,,,
html-keyboard-response,161,275221,205.89999997615814,"",32,,word,VALVE,,,,,,,,,,,,
html-keyboard-response,162,275422,null,"<div style=""font-size:42px;"">DOLPHIN</div><img id = ""stim"" ><div class = green_square id = bottomsquare></div>",null,encoding,word_square,,,1,bottomsquare,32,true,,,DOLPHIN,0,,,
html-keyboard-response,163,275723,null,"<div style=""font-size:42px;"">DOLPHIN</div>",null,,word,DOLPHIN,,,,,,,,,,,,
html-keyboard-response,164,277224,160.39999997615814,"",32,,word,DOLPHIN,,,,,,,,,,,,
html-keyboard-response,165,277425,null,"<div style=""font-size:42px;"">ASIA</div><img id = ""stim"" ><div class = green_square id = topsquare></div>",null,encoding,word_square,,,1,topsquare,32,true,,,ASIA,0,,,
html-keyboard-response,166,277727,null,"<div style=""font-size:42px;"">ASIA</div>",null,,word,ASIA,,,,,,,,,,,,
html-keyboard-response,167,279228,247.5,"",32,,word,ASIA,,,,,,,,,,,,
html-keyboard-response,168,279429,null,"<div style=""font-size:42px;"">JAPAN</div><img id = ""stim"" ><div class = red_square id = bottomsquare></div>",null,encoding,word_square,,,0,bottomsquare,none,true,,,JAPAN,0,,,
html-keyboard-response,169,279730,null,"<div style=""font-size:42px;"">JAPAN</div>",null,,word,JAPAN,,,,,,,,,,,,
html-keyboard-response,170,281231,null,"",null,,word,JAPAN,,,,,,,,,,,,
html-keyboard-response,171,281432,null,"<div style=""font-size:42px;"">ISLAND</div><img id = ""stim"" ><div class = red_square id = topsquare></div>",null,encoding,word_square,,,0,topsquare,none,true,,,ISLAND,0,,,
html-keyboard-response,172,281733,null,"<div style=""font-size:42px;"">ISLAND</div>",null,,word,ISLAND,,,,,,,,,,,,
html-keyboard-response,173,283235,null,"",null,,word,ISLAND,,,,,,,,,,,,
html-keyboard-response,174,283436,null,"<div style=""font-size:42px;"">PARTNER</div><img id = ""stim"" ><div class = green_square id = bottomsquare></div>",null,encoding,word_square,,,1,bottomsquare,32,true,,,PARTNER,0,,,
html-keyboard-response,175,283737,null,"<div style=""font-size:42px;"">PARTNER</div>",null,,word,PARTNER,,,,,,,,,,,,
html-keyboard-response,176,285242,125.89999997615814,"",32,,word,PARTNER,,,,,,,,,,,,
html-keyboard-response,177,285443,null,"<div style=""font-size:42px;"">BOYFRIEND</div><img id = ""stim"" ><div class = green_square id = topsquare></div>",null,encoding,word_square,,,1,topsquare,32,true,,,BOYFRIEND,0,,,
html-keyboard-response,178,285744,null,"<div style=""font-size:42px;"">BOYFRIEND</div>",null,,word,BOYFRIEND,,,,,,,,,,,,
html-keyboard-response,179,287246,365,"",32,,word,BOYFRIEND,,,,,,,,,,,,
html-keyboard-response,180,287447,null,"<div style=""font-size:42px;"">CHURCH</div><img id = ""stim"" ><div class = red_square id = bottomsquare></div>",null,encoding,word_square,,,0,bottomsquare,none,true,,,CHURCH,0,,,
html-keyboard-response,181,287748,null,"<div style=""font-size:42px;"">CHURCH</div>",null,,word,CHURCH,,,,,,,,,,,,
html-keyboard-response,182,289249,null,"",null,,word,CHURCH,,,,,,,,,,,,
html-keyboard-response,183,289450,null,"<div style=""font-size:42px;"">HORSE</div><img id = ""stim"" ><div class = red_square id = topsquare></div>",null,encoding,word_square,,,0,topsquare,none,true,,,HORSE,0,,,
html-keyboard-response,184,289752,null,"<div style=""font-size:42px;"">HORSE</div>",null,,word,HORSE,,,,,,,,,,,,
html-keyboard-response,185,291253,null,"",null,,word,HORSE,,,,,,,,,,,,
html-keyboard-response,186,291454,null,"<div style=""font-size:42px;"">PARTY</div><img id = ""stim"" ><div class = green_square id = bottomsquare></div>",null,encoding,word_square,,,1,bottomsquare,32,true,,,PARTY,0,,,
html-keyboard-response,187,291755,null,"<div style=""font-size:42px;"">PARTY</div>",null,,word,PARTY,,,,,,,,,,,,
html-keyboard-response,188,293256,48.200000047683716,"",32,,word,PARTY,,,,,,,,,,,,
html-keyboard-response,189,293457,null,"<div style=""font-size:42px;"">VILLAIN</div><img id = ""stim"" ><div class = red_square id = bottomsquare></div>",null,encoding,word_square,,,0,bottomsquare,none,true,,,VILLAIN,0,,,
html-keyboard-response,190,293759,null,"<div style=""font-size:42px;"">VILLAIN</div>",null,,word,VILLAIN,,,,,,,,,,,,
html-keyboard-response,191,295260,null,"",null,,word,VILLAIN,,,,,,,,,,,,
html-keyboard-response,192,295461,null,"<div style=""font-size:42px;"">CROSS</div><img id = ""stim"" ><div class = red_square id = topsquare></div>",null,encoding,word_square,,,0,topsquare,none,true,,,CROSS,0,,,
html-keyboard-response,193,295762,null,"<div style=""font-size:42px;"">CROSS</div>",null,,word,CROSS,,,,,,,,,,,,
html-keyboard-response,194,297264,null,"",null,,word,CROSS,,,,,,,,,,,,
call-function,195,297265,,"",,,,,,,,,,,,,,,,
html-keyboard-response,196,297365,null,"",null,,,,,,,,,,,,,,,
math-period,197,300089,5211.499999880791,"",,,,,,,,,,,6,,,,,
html-keyboard-response,198,300190,null,"",null,,,,,,,,,,,,,,,
math-period,199,303047,5349,"",,,,,,,,,,,3,,,,,
html-keyboard-response,200,303148,null,"",null,,,,,,,,,,,,,,,
math-period,201,305845,5192.499999880791,"",,,,,,,,,,,2,,,,,
html-keyboard-response,202,305946,null,"",null,,,,,,,,,,,,,,,
math-period,203,308383,4647.399999856949,"",,,,,,,,,,,4,,,,,
html-keyboard-response,204,308484,null,"",null,,,,,,,,,,,,,,,
math-period,205,310775,4303.799999952316,"",,,,,,,,,,,3,,,,,
html-keyboard-response,206,310876,null,"",null,,,,,,,,,,,,,,,
math-period,207,313264,4427.400000095367,"",,,,,,,,,,,2,,,,,
html-keyboard-response,208,313365,null,"",null,,,,,,,,,,,,,,,
math-period,209,315292,3539.5999999046326,"",,,,,,,,,,,2,,,,,
html-keyboard-response,210,315405,null,"",null,,,,,,,,,,,,,,,
math-period,211,317171,3237.399999856949,"",,,,,,,,,,,4,,,,,
html-keyboard-response,212,317272,null,"",null,,,,,,,,,,,,,,,
math-period,213,319146,3418,"",,,,,,,,,,,2,,,,,
html-keyboard-response,214,319247,null,"",null,,,,,,,,,,,,,,,
math-period,215,321246,3690.5999999046326,"",,,,,,,,,,,5,,,,,
html-keyboard-response,216,321347,null,"",null,,,,,,,,,,,,,,,
math-period,217,321349,null,"",,,,,,,,,,,,,,,,
html-keyboard-response,218,322351,null,"Recall Period!",null,,,,,,,,,,,,,,,
call-function,219,322351,,"",,,,,,,,,,,,,,,,
html-keyboard-response,220,322453,null,"",null,,,,,,,,,,,,,,,
recall-period,221,327268,20638.89999973774,"",,,,,,,,,,,dart,,,,,
html-keyboard-response,222,327370,null,"",null,,,,,,,,,,,,,,,
recall-period,223,332244,21012.49999976158,"",,,,,,,,,,,horse,,,,,
html-keyboard-response,224,332345,null,"",null,,,,,,,,,,,,,,,
recall-period,225,336680,17919.99999976158,"",,,,,,,,,,,partner,,,,,
html-keyboard-response,226,336781,null,"",null,,,,,,,,,,,,,,,
recall-period,227,340044,19053.699999451637,"",,,,,,,,,,,boyfriend,,,,,
html-keyboard-response,228,340145,null,"",null,,,,,,,,,,,,,,,
recall-period,229,344481,21346.100000023842,"",,,,,,,,,,,church,,,,,
html-keyboard-response,230,344582,null,"",null,,,,,,,,,,,,,,,
recall-period,231,356450,54286.40000009537,"",,,,,,,,,,,asia,,,,,
html-keyboard-response,232,356551,null,"",null,,,,,,,,,,,,,,,
recall-period,233,359223,9473.89999973774,"",,,,,,,,,,,japan,,,,,
html-keyboard-response,234,359324,null,"",null,,,,,,,,,,,,,,,
recall-period,235,366944,40816.00000023842,"",,,,,,,,,,,cross,,,,,
html-keyboard-response,236,367045,null,"",null,,,,,,,,,,,,,,,
recall-period,237,391947,142659.39999973774,"",,,,,,,,,,,slime,,,,,
html-keyboard-response,238,392047,null,"",null,,,,,,,,,,,,,,,
recall-period,239,396870,29300.299999833107,"",,,,,,,,,,,sleave,,,,,
html-keyboard-response,240,396971,null,"",null,,,,,,,,,,,,,,,
recall-period,241,397352,null,"",,,,,,,,,,,,,,,,
html-keyboard-response,242,397853,null,"Time's Up!",null,,,,,,,,,,,,,,,
html-keyboard-response,243,401161,3306.7000000476837,"<p> Good job! You have responded correctly to 100% of the trials. </p>
                      <p>Be sure to only press the spacebar if you see a GREEN square, and please keep your accuracy above 80%.</p>
                      <p> Press any key to continue the experiment. </p>",32,,,,,,,,,,,,,,,
html-keyboard-response,244,402071,909.3999999761581,"<div style=""font-size:48px;"">Press any key to begin list 2 of 16 </div>",32,,,,,,,,,,,,,,,
html-keyboard-response,245,404572,null,"<div style=""font-size:60px;"">+</div>",null,,,,,,,,,,,,,,,
html-keyboard-response,246,404774,null,"<div style=""font-size:42px;"">BIKE</div><img id = ""stim"" ><div class = red_square id = topsquare></div>",null,encoding,word_square,,,0,topsquare,none,true,,,BIKE,1,,,
html-keyboard-response,247,405075,null,"<div style=""font-size:42px;"">BIKE</div>",null,,word,BIKE,,,,,,,,,,,,
html-keyboard-response,248,406576,null,"",null,,word,BIKE,,,,,,,,,,,,
html-keyboard-response,249,406777,null,"<div style=""font-size:42px;"">SPINACH</div><img id = ""stim"" ><div class = red_square id = bottomsquare></div>",null,encoding,word_square,,,0,bottomsquare,none,true,,,SPINACH,1,,,
html-keyboard-response,250,407077,null,"<div style=""font-size:42px;"">SPINACH</div>",null,,word,SPINACH,,,,,,,,,,,,
html-keyboard-response,251,408579,null,"",null,,word,SPINACH,,,,,,,,,,,,
html-keyboard-response,252,408781,null,"<div style=""font-size:42px;"">FOOT</div><img id = ""stim"" ><div class = green_square id = bottomsquare></div>",null,encoding,word_square,,,1,bottomsquare,32,true,,,FOOT,1,,,
html-keyboard-response,253,409082,null,"<div style=""font-size:42px;"">FOOT</div>",null,,word,FOOT,,,,,,,,,,,,
html-keyboard-response,254,410583,36.5,"",32,,word,FOOT,,,,,,,,,,,,
html-keyboard-response,255,410785,null,"<div style=""font-size:42px;"">BLACKBOARD</div><img id = ""stim"" ><div class = red_square id = topsquare></div>",null,encoding,word_square,,,0,topsquare,none,true,,,BLACKBOARD,1,,,
html-keyboard-response,256,411086,null,"<div style=""font-size:42px;"">BLACKBOARD</div>",null,,word,BLACKBOARD,,,,,,,,,,,,
html-keyboard-response,257,412587,null,"",null,,word,BLACKBOARD,,,,,,,,,,,,
html-keyboard-response,258,412788,null,"<div style=""font-size:42px;"">MONGOOSE</div><img id = ""stim"" ><div class = red_square id = bottomsquare></div>",null,encoding,word_square,,,0,bottomsquare,none,true,,,MONGOOSE,1,,,
html-keyboard-response,259,413090,null,"<div style=""font-size:42px;"">MONGOOSE</div>",null,,word,MONGOOSE,,,,,,,,,,,,
html-keyboard-response,260,414591,null,"",null,,word,MONGOOSE,,,,,,,,,,,,
html-keyboard-response,261,414792,null,"<div style=""font-size:42px;"">HOSTESS</div><img id = ""stim"" ><div class = green_square id = topsquare></div>",null,encoding,word_square,,,1,topsquare,32,true,,,HOSTESS,1,,,
html-keyboard-response,262,415093,null,"<div style=""font-size:42px;"">HOSTESS</div>",null,,word,HOSTESS,,,,,,,,,,,,
html-keyboard-response,263,416594,324.2000000476837,"",32,,word,HOSTESS,,,,,,,,,,,,
html-keyboard-response,264,416796,null,"<div style=""font-size:42px;"">WAITRESS</div><img id = ""stim"" ><div class = green_square id = bottomsquare></div>",null,encoding,word_square,,,1,bottomsquare,32,true,,,WAITRESS,1,,,
html-keyboard-response,265,417097,null,"<div style=""font-size:42px;"">WAITRESS</div>",null,,word,WAITRESS,,,,,,,,,,,,
html-keyboard-response,266,418598,217.79999995231628,"",32,,word,WAITRESS,,,,,,,,,,,,
html-keyboard-response,267,418799,null,"<div style=""font-size:42px;"">SAND</div><img id = ""stim"" ><div class = red_square id = topsquare></div>",null,encoding,word_square,,,0,topsquare,none,true,,,SAND,1,,,
html-keyboard-response,268,419101,null,"<div style=""font-size:42px;"">SAND</div>",null,,word,SAND,,,,,,,,,,,,
html-keyboard-response,269,420602,null,"",null,,word,SAND,,,,,,,,,,,,
html-keyboard-response,270,420803,null,"<div style=""font-size:42px;"">CAFE</div><img id = ""stim"" ><div class = red_square id = bottomsquare></div>",null,encoding,word_square,,,0,bottomsquare,none,true,,,CAFE,1,,,
html-keyboard-response,271,421105,null,"<div style=""font-size:42px;"">CAFE</div>",null,,word,CAFE,,,,,,,,,,,,
html-keyboard-response,272,422606,null,"",null,,word,CAFE,,,,,,,,,,,,
html-keyboard-response,273,422807,null,"<div style=""font-size:42px;"">SUPPER</div><img id = ""stim"" ><div class = green_square id = topsquare></div>",null,encoding,word_square,,,1,topsquare,32,true,,,SUPPER,1,,,
html-keyboard-response,274,423109,null,"<div style=""font-size:42px;"">SUPPER</div>",null,,word,SUPPER,,,,,,,,,,,,
html-keyboard-response,275,424611,113.19999992847443,"",32,,word,SUPPER,,,,,,,,,,,,
html-keyboard-response,276,424812,null,"<div style=""font-size:42px;"">PUPIL</div><img id = ""stim"" ><div class = green_square id = bottomsquare></div>",null,encoding,word_square,,,1,bottomsquare,32,true,,,PUPIL,1,,,
html-keyboard-response,277,425114,null,"<div style=""font-size:42px;"">PUPIL</div>",null,,word,PUPIL,,,,,,,,,,,,
html-keyboard-response,278,426615,257,"",32,,word,PUPIL,,,,,,,,,,,,
html-keyboard-response,279,426816,null,"<div style=""font-size:42px;"">PEDAL</div><img id = ""stim"" ><div class = green_square id = topsquare></div>",null,encoding,word_square,,,1,topsquare,32,true,,,PEDAL,1,,,
html-keyboard-response,280,427117,null,"<div style=""font-size:42px;"">PEDAL</div>",null,,word,PEDAL,,,,,,,,,,,,
html-keyboard-response,281,428618,329.2000000476837,"",32,,word,PEDAL,,,,,,,,,,,,
html-keyboard-response,282,428819,null,"<div style=""font-size:42px;"">CORAL</div><img id = ""stim"" ><div class = red_square id = topsquare></div>",null,encoding,word_square,,,0,topsquare,none,true,,,CORAL,1,,,
html-keyboard-response,283,429120,null,"<div style=""font-size:42px;"">CORAL</div>",null,,word,CORAL,,,,,,,,,,,,
html-keyboard-response,284,430621,null,"",null,,word,CORAL,,,,,,,,,,,,
html-keyboard-response,285,430822,null,"<div style=""font-size:42px;"">COFFIN</div><img id = ""stim"" ><div class = green_square id = bottomsquare></div>",null,encoding,word_square,,,1,bottomsquare,32,true,,,COFFIN,1,,,
html-keyboard-response,286,431124,null,"<div style=""font-size:42px;"">COFFIN</div>",null,,word,COFFIN,,,,,,,,,,,,
html-keyboard-response,287,432625,51,"",32,,word,COFFIN,,,,,,,,,,,,
html-keyboard-response,288,432826,null,"<div style=""font-size:42px;"">MARKET</div><img id = ""stim"" ><div class = red_square id = bottomsquare></div>",null,encoding,word_square,,,0,bottomsquare,none,true,,,MARKET,1,,,
html-keyboard-response,289,433128,null,"<div style=""font-size:42px;"">MARKET</div>",null,,word,MARKET,,,,,,,,,,,,
html-keyboard-response,290,434634,null,"",null,,word,MARKET,,,,,,,,,,,,
html-keyboard-response,291,434836,null,"<div style=""font-size:42px;"">PAPER</div><img id = ""stim"" ><div class = green_square id = topsquare></div>",null,encoding,word_square,,,1,topsquare,32,true,,,PAPER,1,,,
html-keyboard-response,292,435136,297.10000002384186,"<div style=""font-size:42px;"">PAPER</div>",32,,word,PAPER,,,,,,,,,,,,
html-keyboard-response,293,436637,null,"",null,,word,PAPER,,,,,,,,,,,,
call-function,294,436638,,"",,,,,,,,,,,,,,,,
html-keyboard-response,295,436739,null,"",null,,,,,,,,,,,,,,,
math-period,296,439859,5943.100000023842,"",,,,,,,,,,,4,,,,,
html-keyboard-response,297,439960,null,"",null,,,,,,,,,,,,,,,
math-period,298,441607,2987.5999999046326,"",,,,,,,,,,,5,,,,,
html-keyboard-response,299,441709,null,"",null,,,,,,,,,,,,,,,
math-period,300,444035,4390.599999904633,"",,,,,,,,,,,0,,,,,
html-keyboard-response,301,444137,null,"",null,,,,,,,,,,,,,,,
math-period,302,446131,3711.100000023842,"",,,,,,,,,,,5,,,,,
html-keyboard-response,303,446233,null,"",null,,,,,,,,,,,,,,,
math-period,304,448143,3542.5,"",,,,,,,,,,,4,,,,,
html-keyboard-response,305,448244,null,"",null,,,,,,,,,,,,,,,
math-period,306,449719,2629.4999998807907,"",,,,,,,,,,,2,,,,,
html-keyboard-response,307,449820,null,"",null,,,,,,,,,,,,,,,
math-period,308,451227,2536.600000023842,"",,,,,,,,,,,1,,,,,
html-keyboard-response,309,451328,null,"",null,,,,,,,,,,,,,,,
math-period,310,453593,4252.499999880791,"",,,,,,,,,,,0,,,,,
html-keyboard-response,311,453694,null,"",null,,,,,,,,,,,,,,,
math-period,312,455839,3976.6999999284744,"",,,,,,,,,,,2,,,,,
html-keyboard-response,313,455940,null,"",null,,,,,,,,,,,,,,,
math-period,314,457616,3055.6999999284744,"",,,,,,,,,,,2,,,,,
html-keyboard-response,315,457717,null,"",null,,,,,,,,,,,,,,,
math-period,316,460639,2817.6999999284744,"",,,,,,,,,,,4,,,,,
html-keyboard-response,317,461641,null,"Recall Period!",null,,,,,,,,,,,,,,,
call-function,318,461641,,"",,,,,,,,,,,,,,,,
html-keyboard-response,319,461742,null,"",null,,,,,,,,,,,,,,,
recall-period,320,465354,16810.200000166893,"",,,,,,,,,,,paper,,,,,
html-keyboard-response,321,465455,null,"",null,,,,,,,,,,,,,,,
recall-period,322,467954,9939.400000095367,"",,,,,,,,,,,bike,,,,,
html-keyboard-response,323,468056,null,"",null,,,,,,,,,,,,,,,
recall-period,324,475140,90232.90000081062,"",,,,,,,,,,,mongoose,,,,,
html-keyboard-response,325,475241,null,"",null,,,,,,,,,,,,,,,
recall-period,326,477652,9956.800000071526,"",,,,,,,,,,,pedal,,,,,
html-keyboard-response,327,477754,null,"",null,,,,,,,,,,,,,,,
recall-period,328,478968,4287.900000095367,"",,,,,,,,,,,foot,,,,,
html-keyboard-response,329,479070,null,"",null,,,,,,,,,,,,,,,
recall-period,330,484688,25162.39999973774,"",,,,,,,,,,,sand,,,,,
html-keyboard-response,331,484788,null,"",null,,,,,,,,,,,,,,,
recall-period,332,486450,6239.599999785423,"",,,,,,,,,,,coral,,,,,
html-keyboard-response,333,486551,null,"",null,,,,,,,,,,,,,,,
recall-period,334,500595,93078.59999990463,"",,,,,,,,,,,coffin,,,,,
html-keyboard-response,335,500696,null,"",null,,,,,,,,,,,,,,,
recall-period,336,536643,null,"",,,,,,,,,,,,,,,,
html-keyboard-response,337,537144,null,"Time's Up!",null,,,,,,,,,,,,,,,
html-keyboard-response,338,539283,2138.5,"<p> Good job! You have responded correctly to 100% of the trials. </p>
                      <p>Be sure to only press the spacebar if you see a GREEN square, and please keep your accuracy above 80%.</p>
                      <p> Press any key to continue the experiment. </p>",32,,,,,,,,,,,,,,,
html-keyboard-response,339,540105,821.1999999284744,"<div style=""font-size:48px;"">Press any key to begin list 3 of 16 </div>",32,,,,,,,,,,,,,,,
html-keyboard-response,340,542619,null,"<div style=""font-size:60px;"">+</div>",null,,,,,,,,,,,,,,,
html-keyboard-response,341,542820,null,"<div style=""font-size:42px;"">PRIMATE</div><img id = ""stim"" ><div class = red_square id = bottomsquare></div>",null,encoding,word_square,,,0,bottomsquare,none,true,,,PRIMATE,2,,,
html-keyboard-response,342,543121,null,"<div style=""font-size:42px;"">PRIMATE</div>",null,,word,PRIMATE,,,,,,,,,,,,
html-keyboard-response,343,544622,null,"",null,,word,PRIMATE,,,,,,,,,,,,
html-keyboard-response,344,544824,null,"<div style=""font-size:42px;"">MISTER</div><img id = ""stim"" ><div class = green_square id = topsquare></div>",null,encoding,word_square,,,1,topsquare,32,true,,,MISTER,2,,,
html-keyboard-response,345,545125,null,"<div style=""font-size:42px;"">MISTER</div>",null,,word,MISTER,,,,,,,,,,,,
html-keyboard-response,346,546627,23.5,"",32,,word,MISTER,,,,,,,,,,,,
html-keyboard-response,347,546828,null,"<div style=""font-size:42px;"">ARM</div><img id = ""stim"" ><div class = red_square id = topsquare></div>",null,encoding,word_square,,,0,topsquare,none,true,,,ARM,2,,,
html-keyboard-response,348,547129,null,"<div style=""font-size:42px;"">ARM</div>",null,,word,ARM,,,,,,,,,,,,
html-keyboard-response,349,548630,null,"",null,,word,ARM,,,,,,,,,,,,
html-keyboard-response,350,548832,null,"<div style=""font-size:42px;"">SPIDER</div><img id = ""stim"" ><div class = green_square id = bottomsquare></div>",null,encoding,word_square,,,1,bottomsquare,32,true,,,SPIDER,2,,,
html-keyboard-response,351,549133,null,"<div style=""font-size:42px;"">SPIDER</div>",null,,word,SPIDER,,,,,,,,,,,,
html-keyboard-response,352,550634,61.799999952316284,"",32,,word,SPIDER,,,,,,,,,,,,
html-keyboard-response,353,550850,null,"<div style=""font-size:42px;"">GODDESS</div><img id = ""stim"" ><div class = red_square id = bottomsquare></div>",null,encoding,word_square,,,0,bottomsquare,none,true,,,GODDESS,2,,,
html-keyboard-response,354,551151,null,"<div style=""font-size:42px;"">GODDESS</div>",null,,word,GODDESS,,,,,,,,,,,,
html-keyboard-response,355,552652,null,"",null,,word,GODDESS,,,,,,,,,,,,
html-keyboard-response,356,552853,null,"<div style=""font-size:42px;"">PONY</div><img id = ""stim"" ><div class = red_square id = topsquare></div>",null,encoding,word_square,,,0,topsquare,none,true,,,PONY,2,,,
html-keyboard-response,357,553154,null,"<div style=""font-size:42px;"">PONY</div>",null,,word,PONY,,,,,,,,,,,,
html-keyboard-response,358,554655,null,"",null,,word,PONY,,,,,,,,,,,,
html-keyboard-response,359,554856,null,"<div style=""font-size:42px;"">NOVEL</div><img id = ""stim"" ><div class = red_square id = bottomsquare></div>",null,encoding,word_square,,,0,bottomsquare,none,true,,,NOVEL,2,,,
html-keyboard-response,360,555157,null,"<div style=""font-size:42px;"">NOVEL</div>",null,,word,NOVEL,,,,,,,,,,,,
html-keyboard-response,361,556659,null,"",null,,word,NOVEL,,,,,,,,,,,,
html-keyboard-response,362,556860,null,"<div style=""font-size:42px;"">GIFT</div><img id = ""stim"" ><div class = green_square id = topsquare></div>",null,encoding,word_square,,,1,topsquare,32,true,,,GIFT,2,,,
html-keyboard-response,363,557161,null,"<div style=""font-size:42px;"">GIFT</div>",null,,word,GIFT,,,,,,,,,,,,
html-keyboard-response,364,558663,76.20000004768372,"",32,,word,GIFT,,,,,,,,,,,,
html-keyboard-response,365,558865,null,"<div style=""font-size:42px;"">POSTAGE</div><img id = ""stim"" ><div class = green_square id = bottomsquare></div>",null,encoding,word_square,,,1,bottomsquare,32,true,,,POSTAGE,2,,,
html-keyboard-response,366,559167,null,"<div style=""font-size:42px;"">POSTAGE</div>",null,,word,POSTAGE,,,,,,,,,,,,
html-keyboard-response,367,560668,281.10000002384186,"",32,,word,POSTAGE,,,,,,,,,,,,
html-keyboard-response,368,560869,null,"<div style=""font-size:42px;"">PIRATE</div><img id = ""stim"" ><div class = red_square id = topsquare></div>",null,encoding,word_square,,,0,topsquare,none,true,,,PIRATE,2,,,
html-keyboard-response,369,561171,null,"<div style=""font-size:42px;"">PIRATE</div>",null,,word,PIRATE,,,,,,,,,,,,
html-keyboard-response,370,562676,null,"",null,,word,PIRATE,,,,,,,,,,,,
html-keyboard-response,371,562877,null,"<div style=""font-size:42px;"">JUNGLE</div><img id = ""stim"" ><div class = red_square id = bottomsquare></div>",null,encoding,word_square,,,0,bottomsquare,none,true,,,JUNGLE,2,,,
html-keyboard-response,372,563179,null,"<div style=""font-size:42px;"">JUNGLE</div>",null,,word,JUNGLE,,,,,,,,,,,,
html-keyboard-response,373,564686,null,"",null,,word,JUNGLE,,,,,,,,,,,,
html-keyboard-response,374,564888,null,"<div style=""font-size:42px;"">WAREHOUSE</div><img id = ""stim"" ><div class = green_square id = topsquare></div>",null,encoding,word_square,,,1,topsquare,32,true,,,WAREHOUSE,2,,,
html-keyboard-response,375,565189,null,"<div style=""font-size:42px;"">WAREHOUSE</div>",null,,word,WAREHOUSE,,,,,,,,,,,,
html-keyboard-response,376,566690,99.20000004768372,"",32,,word,WAREHOUSE,,,,,,,,,,,,
html-keyboard-response,377,566891,null,"<div style=""font-size:42px;"">COCOON</div><img id = ""stim"" ><div class = green_square id = bottomsquare></div>",null,encoding,word_square,,,1,bottomsquare,32,true,,,COCOON,2,,,
html-keyboard-response,378,567192,null,"<div style=""font-size:42px;"">COCOON</div>",null,,word,COCOON,,,,,,,,,,,,
html-keyboard-response,379,568693,393.7000000476837,"",32,,word,COCOON,,,,,,,,,,,,
html-keyboard-response,380,568894,null,"<div style=""font-size:42px;"">SUNRISE</div><img id = ""stim"" ><div class = red_square id = topsquare></div>",null,encoding,word_square,,,0,topsquare,none,true,,,SUNRISE,2,,,
html-keyboard-response,381,569195,null,"<div style=""font-size:42px;"">SUNRISE</div>",null,,word,SUNRISE,,,,,,,,,,,,
html-keyboard-response,382,570696,null,"",null,,word,SUNRISE,,,,,,,,,,,,
html-keyboard-response,383,570897,null,"<div style=""font-size:42px;"">SUNSET</div><img id = ""stim"" ><div class = green_square id = topsquare></div>",null,encoding,word_square,,,1,topsquare,32,true,,,SUNSET,2,,,
html-keyboard-response,384,571198,null,"<div style=""font-size:42px;"">SUNSET</div>",null,,word,SUNSET,,,,,,,,,,,,
html-keyboard-response,385,572700,193.39999997615814,"",32,,word,SUNSET,,,,,,,,,,,,
html-keyboard-response,386,572900,null,"<div style=""font-size:42px;"">STOCKING</div><img id = ""stim"" ><div class = green_square id = bottomsquare></div>",null,encoding,word_square,,,1,bottomsquare,32,true,,,STOCKING,2,,,
html-keyboard-response,387,573201,null,"<div style=""font-size:42px;"">STOCKING</div>",null,,word,STOCKING,,,,,,,,,,,,
html-keyboard-response,388,574703,510.5,"",32,,word,STOCKING,,,,,,,,,,,,
call-function,389,574704,,"",,,,,,,,,,,,,,,,
html-keyboard-response,390,574818,null,"",null,,,,,,,,,,,,,,,
math-period,391,577779,5852.600000023842,"",,,,,,,,,,,3,,,,,
html-keyboard-response,392,577880,null,"",null,,,,,,,,,,,,,,,
math-period,393,579885,3955.5,"",,,,,,,,,,,4,,,,,
html-keyboard-response,394,579985,null,"",null,,,,,,,,,,,,,,,
math-period,395,581642,3020.3000000715256,"",,,,,,,,,,,2,,,,,
html-keyboard-response,396,581743,null,"",null,,,,,,,,,,,,,,,
math-period,397,583795,4013.600000023842,"",,,,,,,,,,,3,,,,,
html-keyboard-response,398,583896,null,"",null,,,,,,,,,,,,,,,
math-period,399,585230,2563.5999999046326,"",,,,,,,,,,,4,,,,,
html-keyboard-response,400,585332,null,"",null,,,,,,,,,,,,,,,
math-period,401,587762,4496.200000047684,"",,,,,,,,,,,1,,,,,
html-keyboard-response,402,587864,null,"",null,,,,,,,,,,,,,,,
math-period,403,589175,2465.4999998807907,"",,,,,,,,,,,3,,,,,
html-keyboard-response,404,589276,null,"",null,,,,,,,,,,,,,,,
math-period,405,591782,4630.200000047684,"",,,,,,,,,,,4,,,,,
html-keyboard-response,406,591884,null,"",null,,,,,,,,,,,,,,,
math-period,407,594720,5384.300000071526,"",,,,,,,,,,,5,,,,,
html-keyboard-response,408,594822,null,"",null,,,,,,,,,,,,,,,
math-period,409,596170,2588.600000023842,"",,,,,,,,,,,1,,,,,
html-keyboard-response,410,596271,null,"",null,,,,,,,,,,,,,,,
math-period,411,597866,3073.100000143051,"",,,,,,,,,,,1,,,,,
html-keyboard-response,412,597967,null,"",null,,,,,,,,,,,,,,,
math-period,413,598703,null,"",,,,,,,,,,,,,,,,
html-keyboard-response,414,599705,null,"Recall Period!",null,,,,,,,,,,,,,,,
call-function,415,599706,,"",,,,,,,,,,,,,,,,
html-keyboard-response,416,599806,null,"",null,,,,,,,,,,,,,,,
recall-period,417,617729,133264.7000002861,"",,,,,,,,,,,primate,,,,,
html-keyboard-response,418,617831,null,"",null,,,,,,,,,,,,,,,
recall-period,419,621525,17039.200000166893,"",,,,,,,,,,,spider,,,,,
html-keyboard-response,420,621626,null,"",null,,,,,,,,,,,,,,,
recall-period,421,623443,5084.89999973774,"",,,,,,,,,,,arm,,,,,
html-keyboard-response,422,623544,null,"",null,,,,,,,,,,,,,,,
recall-period,423,629777,37263.09999978542,"",,,,,,,,,,,goddes,,,,,
html-keyboard-response,424,629878,null,"",null,,,,,,,,,,,,,,,
recall-period,425,659598,197252.4999998808,"",,,,,,,,,,,mister,,,,,
html-keyboard-response,426,659699,null,"",null,,,,,,,,,,,,,,,
recall-period,427,674707,null,"",,,,,,,,,,,,,,,,
html-keyboard-response,428,675208,null,"Time's Up!",null,,,,,,,,,,,,,,,
html-keyboard-response,429,676634,1425.2000000476837,"<p> Good job! You have responded correctly to 100% of the trials. </p>
                      <p>Be sure to only press the spacebar if you see a GREEN square, and please keep your accuracy above 80%.</p>
                      <p> Press any key to continue the experiment. </p>",32,,,,,,,,,,,,,,,
html-keyboard-response,430,680852,4217.399999976158,"<div style=""font-size:48px;"">Press any key to begin list 4 of 16 </div>",32,,,,,,,,,,,,,,,
html-keyboard-response,431,683354,null,"<div style=""font-size:60px;"">+</div>",null,,,,,,,,,,,,,,,
html-keyboard-response,432,683556,null,"<div style=""font-size:42px;"">SAUSAGE</div><img id = ""stim"" ><div class = green_square id = bottomsquare></div>",null,encoding,word_square,,,1,bottomsquare,32,true,,,SAUSAGE,3,,,
html-keyboard-response,433,683857,null,"<div style=""font-size:42px;"">SAUSAGE</div>",null,,word,SAUSAGE,,,,,,,,,,,,
html-keyboard-response,434,685358,321.10000002384186,"",32,,word,SAUSAGE,,,,,,,,,,,,
html-keyboard-response,435,685560,null,"<div style=""font-size:42px;"">STAKE</div><img id = ""stim"" ><div class = green_square id = topsquare></div>",null,encoding,word_square,,,1,topsquare,32,true,,,STAKE,3,,,
html-keyboard-response,436,685862,null,"<div style=""font-size:42px;"">STAKE</div>",null,,word,STAKE,,,,,,,,,,,,
html-keyboard-response,437,687363,104.39999997615814,"",32,,word,STAKE,,,,,,,,,,,,
html-keyboard-response,438,687564,null,"<div style=""font-size:42px;"">CABIN</div><img id = ""stim"" ><div class = red_square id = topsquare></div>",null,encoding,word_square,,,0,topsquare,none,true,,,CABIN,3,,,
html-keyboard-response,439,687866,null,"<div style=""font-size:42px;"">CABIN</div>",null,,word,CABIN,,,,,,,,,,,,
html-keyboard-response,440,689367,null,"",null,,word,CABIN,,,,,,,,,,,,
html-keyboard-response,441,689569,null,"<div style=""font-size:42px;"">FIELD</div><img id = ""stim"" ><div class = green_square id = bottomsquare></div>",null,encoding,word_square,,,1,bottomsquare,32,true,,,FIELD,3,,,
html-keyboard-response,442,689870,null,"<div style=""font-size:42px;"">FIELD</div>",null,,word,FIELD,,,,,,,,,,,,
html-keyboard-response,443,691372,61.300000071525574,"",32,,word,FIELD,,,,,,,,,,,,
html-keyboard-response,444,691573,null,"<div style=""font-size:42px;"">DRUG</div><img id = ""stim"" ><div class = green_square id = topsquare></div>",null,encoding,word_square,,,1,topsquare,32,true,,,DRUG,3,,,
html-keyboard-response,445,691875,null,"<div style=""font-size:42px;"">DRUG</div>",null,,word,DRUG,,,,,,,,,,,,
html-keyboard-response,446,693376,136.30000007152557,"",32,,word,DRUG,,,,,,,,,,,,
html-keyboard-response,447,693578,null,"<div style=""font-size:42px;"">WAIST</div><img id = ""stim"" ><div class = red_square id = bottomsquare></div>",null,encoding,word_square,,,0,bottomsquare,none,true,,,WAIST,3,,,
html-keyboard-response,448,693879,null,"<div style=""font-size:42px;"">WAIST</div>",null,,word,WAIST,,,,,,,,,,,,
html-keyboard-response,449,695381,null,"",null,,word,WAIST,,,,,,,,,,,,
html-keyboard-response,450,695582,null,"<div style=""font-size:42px;"">CANYON</div><img id = ""stim"" ><div class = red_square id = topsquare></div>",null,encoding,word_square,,,0,topsquare,none,true,,,CANYON,3,,,
html-keyboard-response,451,695884,null,"<div style=""font-size:42px;"">CANYON</div>",null,,word,CANYON,,,,,,,,,,,,
html-keyboard-response,452,697385,null,"",null,,word,CANYON,,,,,,,,,,,,
html-keyboard-response,453,697586,null,"<div style=""font-size:42px;"">SHOULDER</div><img id = ""stim"" ><div class = green_square id = bottomsquare></div>",null,encoding,word_square,,,1,bottomsquare,32,true,,,SHOULDER,3,,,
html-keyboard-response,454,697888,null,"<div style=""font-size:42px;"">SHOULDER</div>",null,,word,SHOULDER,,,,,,,,,,,,
html-keyboard-response,455,699389,206.10000002384186,"",32,,word,SHOULDER,,,,,,,,,,,,
html-keyboard-response,456,699590,null,"<div style=""font-size:42px;"">CEILING</div><img id = ""stim"" ><div class = green_square id = topsquare></div>",null,encoding,word_square,,,1,topsquare,32,true,,,CEILING,3,,,
html-keyboard-response,457,699891,null,"<div style=""font-size:42px;"">CEILING</div>",null,,word,CEILING,,,,,,,,,,,,
html-keyboard-response,458,701393,262.89999997615814,"",32,,word,CEILING,,,,,,,,,,,,
html-keyboard-response,459,701595,null,"<div style=""font-size:42px;"">CANOE</div><img id = ""stim"" ><div class = red_square id = bottomsquare></div>",null,encoding,word_square,,,0,bottomsquare,none,true,,,CANOE,3,,,
html-keyboard-response,460,701897,null,"<div style=""font-size:42px;"">CANOE</div>",null,,word,CANOE,,,,,,,,,,,,
html-keyboard-response,461,703398,null,"",null,,word,CANOE,,,,,,,,,,,,
html-keyboard-response,462,703599,null,"<div style=""font-size:42px;"">PLUTO</div><img id = ""stim"" ><div class = red_square id = topsquare></div>",null,encoding,word_square,,,0,topsquare,none,true,,,PLUTO,3,,,
html-keyboard-response,463,703900,null,"<div style=""font-size:42px;"">PLUTO</div>",null,,word,PLUTO,,,,,,,,,,,,
html-keyboard-response,464,705401,null,"",null,,word,PLUTO,,,,,,,,,,,,
html-keyboard-response,465,705604,null,"<div style=""font-size:42px;"">ELBOW</div><img id = ""stim"" ><div class = red_square id = bottomsquare></div>",null,encoding,word_square,,,0,bottomsquare,none,true,,,ELBOW,3,,,
html-keyboard-response,466,705905,null,"<div style=""font-size:42px;"">ELBOW</div>",null,,word,ELBOW,,,,,,,,,,,,
html-keyboard-response,467,707406,null,"",null,,word,ELBOW,,,,,,,,,,,,
html-keyboard-response,468,707607,null,"<div style=""font-size:42px;"">POND</div><img id = ""stim"" ><div class = green_square id = bottomsquare></div>",null,encoding,word_square,,,1,bottomsquare,32,true,,,POND,3,,,
html-keyboard-response,469,707907,null,"<div style=""font-size:42px;"">POND</div>",null,,word,POND,,,,,,,,,,,,
html-keyboard-response,470,709409,242.80000007152557,"",32,,word,POND,,,,,,,,,,,,
html-keyboard-response,471,709610,null,"<div style=""font-size:42px;"">SCALLOP</div><img id = ""stim"" ><div class = red_square id = topsquare></div>",null,encoding,word_square,,,0,topsquare,none,true,,,SCALLOP,3,,,
html-keyboard-response,472,709912,null,"<div style=""font-size:42px;"">SCALLOP</div>",null,,word,SCALLOP,,,,,,,,,,,,
html-keyboard-response,473,711413,null,"",null,,word,SCALLOP,,,,,,,,,,,,
html-keyboard-response,474,711614,null,"<div style=""font-size:42px;"">SPOUSE</div><img id = ""stim"" ><div class = green_square id = topsquare></div>",null,encoding,word_square,,,1,topsquare,32,true,,,SPOUSE,3,,,
html-keyboard-response,475,711916,null,"<div style=""font-size:42px;"">SPOUSE</div>",null,,word,SPOUSE,,,,,,,,,,,,
html-keyboard-response,476,713429,195.5,"",32,,word,SPOUSE,,,,,,,,,,,,
html-keyboard-response,477,713631,null,"<div style=""font-size:42px;"">LOVER</div><img id = ""stim"" ><div class = red_square id = bottomsquare></div>",null,encoding,word_square,,,0,bottomsquare,none,true,,,LOVER,3,,,
html-keyboard-response,478,713932,null,"<div style=""font-size:42px;"">LOVER</div>",null,,word,LOVER,,,,,,,,,,,,
html-keyboard-response,479,715434,null,"",null,,word,LOVER,,,,,,,,,,,,
call-function,480,715434,,"",,,,,,,,,,,,,,,,
html-keyboard-response,481,715535,null,"",null,,,,,,,,,,,,,,,
math-period,482,717605,4088.100000143051,"",,,,,,,,,,,4,,,,,
html-keyboard-response,483,717706,null,"",null,,,,,,,,,,,,,,,
math-period,484,719477,3472.399999976158,"",,,,,,,,,,,6,,,,,
html-keyboard-response,485,719578,null,"",null,,,,,,,,,,,,,,,
math-period,486,720735,2276.4999998807907,"",,,,,,,,,,,4,,,,,
html-keyboard-response,487,720836,null,"",null,,,,,,,,,,,,,,,
math-period,488,721895,2064.2999999523163,"",,,,,,,,,,,3,,,,,
html-keyboard-response,489,721997,null,"",null,,,,,,,,,,,,,,,
math-period,490,723705,3346.899999976158,"",,,,,,,,,,,3,,,,,
html-keyboard-response,491,723807,null,"",null,,,,,,,,,,,,,,,
math-period,492,725214,2761.0000001192093,"",,,,,,,,,,,6,,,,,
html-keyboard-response,493,725315,null,"",null,,,,,,,,,,,,,,,
math-period,494,727356,4012.7000000476837,"",,,,,,,,,,,2,,,,,
html-keyboard-response,495,727457,null,"",null,,,,,,,,,,,,,,,
math-period,496,729818,4613.399999976158,"",,,,,,,,,,,1,,,,,
html-keyboard-response,497,729920,null,"",null,,,,,,,,,,,,,,,
math-period,498,731038,2181.7999999523163,"",,,,,,,,,,,4,,,,,
html-keyboard-response,499,731138,null,"",null,,,,,,,,,,,,,,,
math-period,500,732772,3214.899999976158,"",,,,,,,,,,,4,,,,,
html-keyboard-response,501,732874,null,"",null,,,,,,,,,,,,,,,
math-period,502,734210,2655.4000000953674,"",,,,,,,,,,,3,,,,,
html-keyboard-response,503,734311,null,"",null,,,,,,,,,,,,,,,
math-period,504,735945,3194.2999999523163,"",,,,,,,,,,,4,,,,,
html-keyboard-response,505,736046,null,"",null,,,,,,,,,,,,,,,
math-period,506,737486,2810.1999999284744,"",,,,,,,,,,,4,,,,,
html-keyboard-response,507,737587,null,"",null,,,,,,,,,,,,,,,
math-period,508,738691,2155.7999999523163,"",,,,,,,,,,,3,,,,,
html-keyboard-response,509,738793,null,"",null,,,,,,,,,,,,,,,
math-period,510,739435,null,"",,,,,,,,,,,,,,,,
html-keyboard-response,511,740436,null,"Recall Period!",null,,,,,,,,,,,,,,,
call-function,512,740436,,"",,,,,,,,,,,,,,,,
html-keyboard-response,513,740537,null,"",null,,,,,,,,,,,,,,,
recall-period,514,743517,11590.400000095367,"",,,,,,,,,,,pond,,,,,
html-keyboard-response,515,743619,null,"",null,,,,,,,,,,,,,,,
recall-period,516,746788,15198.099999904633,"",,,,,,,,,,,ceiling,,,,,
html-keyboard-response,517,746890,null,"",null,,,,,,,,,,,,,,,
recall-period,518,749196,10157.999999523163,"",,,,,,,,,,,elbow,,,,,
html-keyboard-response,519,749298,null,"",null,,,,,,,,,,,,,,,
recall-period,520,751522,11887.900000214577,"",,,,,,,,,,,shoulder,,,,,
html-keyboard-response,521,751623,null,"",null,,,,,,,,,,,,,,,
recall-period,522,765934,208146.6999988556,"",,,,,,,,,,,conoe,,,,,
html-keyboard-response,523,766036,null,"",null,,,,,,,,,,,,,,,
recall-period,524,770392,22248.50000011921,"",,,,,,,,,,,field,,,,,
html-keyboard-response,525,770494,null,"",null,,,,,,,,,,,,,,,
recall-period,526,771768,4397.900000214577,"",,,,,,,,,,,stake,,,,,
html-keyboard-response,527,771870,null,"",null,,,,,,,,,,,,,,,
recall-period,528,788893,81140.99999964237,"",,,,,,,,,,,drug,,,,,
html-keyboard-response,529,788994,null,"",null,,,,,,,,,,,,,,,
recall-period,530,803656,83448.29999959469,"",,,,,,,,,,,cabin,,,,,
html-keyboard-response,531,803757,null,"",null,,,,,,,,,,,,,,,
recall-period,532,815438,null,"",,,,,,,,,,,,,,,,
html-keyboard-response,533,815940,null,"Time's Up!",null,,,,,,,,,,,,,,,
html-keyboard-response,534,818040,2099.2999999523163,"<p> Good job! You have responded correctly to 100% of the trials. </p>
                      <p>Be sure to only press the spacebar if you see a GREEN square, and please keep your accuracy above 80%.</p>
                      <p> Press any key to continue the experiment. </p>",32,,,,,,,,,,,,,,,
html-keyboard-response,535,856920,38878.5,"<div style=""font-size:48px;"">Press any key to begin list 5 of 16 </div>",32,,,,,,,,,,,,,,,
html-keyboard-response,536,859421,null,"<div style=""font-size:60px;"">+</div>",null,,,,,,,,,,,,,,,
html-keyboard-response,537,859622,null,"<div style=""font-size:42px;"">HATCHET</div><img id = ""stim"" ><div class = green_square id = topsquare></div>",null,encoding,word_square,,,1,topsquare,32,true,,,HATCHET,4,,,
html-keyboard-response,538,859924,null,"<div style=""font-size:42px;"">HATCHET</div>",null,,word,HATCHET,,,,,,,,,,,,
html-keyboard-response,539,861425,280.89999997615814,"",32,,word,HATCHET,,,,,,,,,,,,
html-keyboard-response,540,861626,null,"<div style=""font-size:42px;"">LETTUCE</div><img id = ""stim"" ><div class = green_square id = bottomsquare></div>",null,encoding,word_square,,,1,bottomsquare,32,true,,,LETTUCE,4,,,
html-keyboard-response,541,861928,null,"<div style=""font-size:42px;"">LETTUCE</div>",null,,word,LETTUCE,,,,,,,,,,,,
html-keyboard-response,542,863429,356.90000009536743,"",32,,word,LETTUCE,,,,,,,,,,,,
html-keyboard-response,543,863630,null,"<div style=""font-size:42px;"">FRECKLE</div><img id = ""stim"" ><div class = red_square id = bottomsquare></div>",null,encoding,word_square,,,0,bottomsquare,none,true,,,FRECKLE,4,,,
html-keyboard-response,544,863932,null,"<div style=""font-size:42px;"">FRECKLE</div>",null,,word,FRECKLE,,,,,,,,,,,,
html-keyboard-response,545,865433,null,"",null,,word,FRECKLE,,,,,,,,,,,,
html-keyboard-response,546,865634,null,"<div style=""font-size:42px;"">CLOSET</div><img id = ""stim"" ><div class = green_square id = topsquare></div>",null,encoding,word_square,,,1,topsquare,32,true,,,CLOSET,4,,,
html-keyboard-response,547,865935,null,"<div style=""font-size:42px;"">CLOSET</div>",null,,word,CLOSET,,,,,,,,,,,,
html-keyboard-response,548,867437,135.60000002384186,"",32,,word,CLOSET,,,,,,,,,,,,
html-keyboard-response,549,867639,null,"<div style=""font-size:42px;"">CANDY</div><img id = ""stim"" ><div class = red_square id = topsquare></div>",null,encoding,word_square,,,0,topsquare,none,true,,,CANDY,4,,,
html-keyboard-response,550,867941,null,"<div style=""font-size:42px;"">CANDY</div>",null,,word,CANDY,,,,,,,,,,,,
html-keyboard-response,551,869442,null,"",null,,word,CANDY,,,,,,,,,,,,
html-keyboard-response,552,869644,null,"<div style=""font-size:42px;"">PASTRY</div><img id = ""stim"" ><div class = red_square id = bottomsquare></div>",null,encoding,word_square,,,0,bottomsquare,none,true,,,PASTRY,4,,,
html-keyboard-response,553,869946,null,"<div style=""font-size:42px;"">PASTRY</div>",null,,word,PASTRY,,,,,,,,,,,,
html-keyboard-response,554,871447,null,"",null,,word,PASTRY,,,,,,,,,,,,
html-keyboard-response,555,871649,null,"<div style=""font-size:42px;"">FIDDLE</div><img id = ""stim"" ><div class = green_square id = bottomsquare></div>",null,encoding,word_square,,,1,bottomsquare,32,true,,,FIDDLE,4,,,
html-keyboard-response,556,871950,null,"<div style=""font-size:42px;"">FIDDLE</div>",null,,word,FIDDLE,,,,,,,,,,,,
html-keyboard-response,557,873452,168.30000007152557,"",32,,word,FIDDLE,,,,,,,,,,,,
html-keyboard-response,558,873653,null,"<div style=""font-size:42px;"">WHISTLE</div><img id = ""stim"" ><div class = green_square id = topsquare></div>",null,encoding,word_square,,,1,topsquare,32,true,,,WHISTLE,4,,,
html-keyboard-response,559,873955,null,"<div style=""font-size:42px;"">WHISTLE</div>",null,,word,WHISTLE,,,,,,,,,,,,
html-keyboard-response,560,875456,124,"",32,,word,WHISTLE,,,,,,,,,,,,
html-keyboard-response,561,875657,null,"<div style=""font-size:42px;"">SQUID</div><img id = ""stim"" ><div class = red_square id = topsquare></div>",null,encoding,word_square,,,0,topsquare,none,true,,,SQUID,4,,,
html-keyboard-response,562,875959,null,"<div style=""font-size:42px;"">SQUID</div>",null,,word,SQUID,,,,,,,,,,,,
html-keyboard-response,563,877460,null,"",null,,word,SQUID,,,,,,,,,,,,
html-keyboard-response,564,877661,null,"<div style=""font-size:42px;"">WORKER</div><img id = ""stim"" ><div class = red_square id = bottomsquare></div>",null,encoding,word_square,,,0,bottomsquare,none,true,,,WORKER,4,,,
html-keyboard-response,565,877963,null,"<div style=""font-size:42px;"">WORKER</div>",null,,word,WORKER,,,,,,,,,,,,
html-keyboard-response,566,879464,null,"",null,,word,WORKER,,,,,,,,,,,,
html-keyboard-response,567,879665,null,"<div style=""font-size:42px;"">TILE</div><img id = ""stim"" ><div class = green_square id = bottomsquare></div>",null,encoding,word_square,,,1,bottomsquare,32,true,,,TILE,4,,,
html-keyboard-response,568,879966,null,"<div style=""font-size:42px;"">TILE</div>",null,,word,TILE,,,,,,,,,,,,
html-keyboard-response,569,881467,206.10000002384186,"",32,,word,TILE,,,,,,,,,,,,
html-keyboard-response,570,881668,null,"<div style=""font-size:42px;"">RUG</div><img id = ""stim"" ><div class = red_square id = topsquare></div>",null,encoding,word_square,,,0,topsquare,none,true,,,RUG,4,,,
html-keyboard-response,571,881969,null,"<div style=""font-size:42px;"">RUG</div>",null,,word,RUG,,,,,,,,,,,,
html-keyboard-response,572,883470,null,"",null,,word,RUG,,,,,,,,,,,,
html-keyboard-response,573,883672,null,"<div style=""font-size:42px;"">TUTU</div><img id = ""stim"" ><div class = red_square id = bottomsquare></div>",null,encoding,word_square,,,0,bottomsquare,none,true,,,TUTU,4,,,
html-keyboard-response,574,883974,null,"<div style=""font-size:42px;"">TUTU</div>",null,,word,TUTU,,,,,,,,,,,,
html-keyboard-response,575,885475,null,"",null,,word,TUTU,,,,,,,,,,,,
html-keyboard-response,576,885676,null,"<div style=""font-size:42px;"">GOBLIN</div><img id = ""stim"" ><div class = green_square id = topsquare></div>",null,encoding,word_square,,,1,topsquare,32,true,,,GOBLIN,4,,,
html-keyboard-response,577,885977,null,"<div style=""font-size:42px;"">GOBLIN</div>",null,,word,GOBLIN,,,,,,,,,,,,
html-keyboard-response,578,887478,208.19999992847443,"",32,,word,GOBLIN,,,,,,,,,,,,
html-keyboard-response,579,887679,null,"<div style=""font-size:42px;"">BRIDE</div><img id = ""stim"" ><div class = green_square id = bottomsquare></div>",null,encoding,word_square,,,1,bottomsquare,32,true,,,BRIDE,4,,,
html-keyboard-response,580,887981,null,"<div style=""font-size:42px;"">BRIDE</div>",null,,word,BRIDE,,,,,,,,,,,,
html-keyboard-response,581,889483,121.10000002384186,"",32,,word,BRIDE,,,,,,,,,,,,
html-keyboard-response,582,889684,null,"<div style=""font-size:42px;"">EYELASH</div><img id = ""stim"" ><div class = red_square id = topsquare></div>",null,encoding,word_square,,,0,topsquare,none,true,,,EYELASH,4,,,
html-keyboard-response,583,889985,null,"<div style=""font-size:42px;"">EYELASH</div>",null,,word,EYELASH,,,,,,,,,,,,
html-keyboard-response,584,891486,null,"",null,,word,EYELASH,,,,,,,,,,,,
call-function,585,891486,,"",,,,,,,,,,,,,,,,
html-keyboard-response,586,891587,null,"",null,,,,,,,,,,,,,,,
math-period,587,894187,4891.800000071526,"",,,,,,,,,,,0,,,,,
html-keyboard-response,588,894288,null,"",null,,,,,,,,,,,,,,,
math-period,589,895696,2610.6999999284744,"",,,,,,,,,,,3,,,,,
html-keyboard-response,590,895797,null,"",null,,,,,,,,,,,,,,,
math-period,591,897286,2788.399999856949,"",,,,,,,,,,,5,,,,,
html-keyboard-response,592,897387,null,"",null,,,,,,,,,,,,,,,
math-period,593,899080,3228.2000000476837,"",,,,,,,,,,,5,,,,,
html-keyboard-response,594,899181,null,"",null,,,,,,,,,,,,,,,
math-period,595,900374,2159.6999999284744,"",,,,,,,,,,,4,,,,,
html-keyboard-response,596,900476,null,"",null,,,,,,,,,,,,,,,
math-period,597,901960,2775.4000000953674,"",,,,,,,,,,,3,,,,,
html-keyboard-response,598,902062,null,"",null,,,,,,,,,,,,,,,
math-period,599,903734,3170.4999998807907,"",,,,,,,,,,,5,,,,,
html-keyboard-response,600,903836,null,"",null,,,,,,,,,,,,,,,
math-period,601,905410,2943.7999999523163,"",,,,,,,,,,,4,,,,,
html-keyboard-response,602,905511,null,"",null,,,,,,,,,,,,,,,
math-period,603,906970,2725.6999999284744,"",,,,,,,,,,,3,,,,,
html-keyboard-response,604,907072,null,"",null,,,,,,,,,,,,,,,
math-period,605,908176,1947.8999999761581,"",,,,,,,,,,,2,,,,,
html-keyboard-response,606,908278,null,"",null,,,,,,,,,,,,,,,
math-period,607,909788,2791,"",,,,,,,,,,,5,,,,,
html-keyboard-response,608,909889,null,"",null,,,,,,,,,,,,,,,
math-period,609,912186,4385.300000071526,"",,,,,,,,,,,2,,,,,
html-keyboard-response,610,912288,null,"",null,,,,,,,,,,,,,,,
math-period,611,914392,4013.7999999523163,"",,,,,,,,,,,4,,,,,
html-keyboard-response,612,914494,null,"",null,,,,,,,,,,,,,,,
math-period,613,915488,null,"",,,,,,,,,,,,,,,,
html-keyboard-response,614,916490,null,"Recall Period!",null,,,,,,,,,,,,,,,
call-function,615,916490,,"",,,,,,,,,,,,,,,,
html-keyboard-response,616,916591,null,"",null,,,,,,,,,,,,,,,
recall-period,617,920398,20864.199999570847,"",,,,,,,,,,,lettuce,,,,,
html-keyboard-response,618,920499,null,"",null,,,,,,,,,,,,,,,
recall-period,619,923690,16389.599999547005,"",,,,,,,,,,,hatchet,,,,,
html-keyboard-response,620,923792,null,"",null,,,,,,,,,,,,,,,
recall-period,621,925344,5388.799999952316,"",,,,,,,,,,,tile,,,,,
html-keyboard-response,622,925445,null,"",null,,,,,,,,,,,,,,,
recall-period,623,929114,17395.49999988079,"",,,,,,,,,,,candy,,,,,
html-keyboard-response,624,929215,null,"",null,,,,,,,,,,,,,,,
recall-period,625,932201,14255.39999961853,"",,,,,,,,,,,pastry,,,,,
html-keyboard-response,626,932302,null,"",null,,,,,,,,,,,,,,,
recall-period,627,937729,34826.199999690056,"",,,,,,,,,,,eyelash,,,,,
html-keyboard-response,628,937830,null,"",null,,,,,,,,,,,,,,,
recall-period,629,947963,55720.60000014305,"",,,,,,,,,,,bride,,,,,
html-keyboard-response,630,948065,null,"",null,,,,,,,,,,,,,,,
recall-period,631,958123,68146.7000001669,"",,,,,,,,,,,freckle,,,,,
html-keyboard-response,632,958224,null,"",null,,,,,,,,,,,,,,,
recall-period,633,965263,30053.899999976158,"",,,,,,,,,,,tutu,,,,,
html-keyboard-response,634,965364,null,"",null,,,,,,,,,,,,,,,
recall-period,635,967333,8079.39999973774,"",,,,,,,,,,,goblin,,,,,
html-keyboard-response,636,967434,null,"",null,,,,,,,,,,,,,,,
recall-period,637,991492,null,"",,,,,,,,,,,,,,,,
html-keyboard-response,638,991993,null,"Time's Up!",null,,,,,,,,,,,,,,,
html-keyboard-response,639,993202,1208.5,"<p> Good job! You have responded correctly to 100% of the trials. </p>
                      <p>Be sure to only press the spacebar if you see a GREEN square, and please keep your accuracy above 80%.</p>
                      <p> Press any key to continue the experiment. </p>",32,,,,,,,,,,,,,,,
html-keyboard-response,640,997070,3867.2000000476837,"<div style=""font-size:48px;"">Press any key to begin list 6 of 16 </div>",32,,,,,,,,,,,,,,,
html-keyboard-response,641,999572,null,"<div style=""font-size:60px;"">+</div>",null,,,,,,,,,,,,,,,
html-keyboard-response,642,999774,null,"<div style=""font-size:42px;"">STREET</div><img id = ""stim"" ><div class = red_square id = topsquare></div>",null,encoding,word_square,,,0,topsquare,none,true,,,STREET,5,,,
html-keyboard-response,643,1000075,null,"<div style=""font-size:42px;"">STREET</div>",null,,word,STREET,,,,,,,,,,,,
html-keyboard-response,644,1001576,null,"",null,,word,STREET,,,,,,,,,,,,
html-keyboard-response,645,1001777,null,"<div style=""font-size:42px;"">ROOSTER</div><img id = ""stim"" ><div class = green_square id = bottomsquare></div>",null,encoding,word_square,,,1,bottomsquare,32,true,,,ROOSTER,5,,,
html-keyboard-response,646,1002078,274.60000002384186,"<div style=""font-size:42px;"">ROOSTER</div>",32,,word,ROOSTER,,,,,,,,,,,,
html-keyboard-response,647,1003585,null,"",null,,word,ROOSTER,,,,,,,,,,,,
html-keyboard-response,648,1003786,null,"<div style=""font-size:42px;"">PORPOISE</div><img id = ""stim"" ><div class = green_square id = topsquare></div>",null,encoding,word_square,,,1,topsquare,32,true,,,PORPOISE,5,,,
html-keyboard-response,649,1004087,null,"<div style=""font-size:42px;"">PORPOISE</div>",null,,word,PORPOISE,,,,,,,,,,,,
html-keyboard-response,650,1005589,226.10000002384186,"",32,,word,PORPOISE,,,,,,,,,,,,
html-keyboard-response,651,1005790,null,"<div style=""font-size:42px;"">BANDIT</div><img id = ""stim"" ><div class = red_square id = bottomsquare></div>",null,encoding,word_square,,,0,bottomsquare,none,true,,,BANDIT,5,,,
html-keyboard-response,652,1006091,null,"<div style=""font-size:42px;"">BANDIT</div>",null,,word,BANDIT,,,,,,,,,,,,
html-keyboard-response,653,1007592,null,"",null,,word,BANDIT,,,,,,,,,,,,
html-keyboard-response,654,1007793,null,"<div style=""font-size:42px;"">GLOBE</div><img id = ""stim"" ><div class = red_square id = topsquare></div>",null,encoding,word_square,,,0,topsquare,none,true,,,GLOBE,5,,,
html-keyboard-response,655,1008094,null,"<div style=""font-size:42px;"">GLOBE</div>",null,,word,GLOBE,,,,,,,,,,,,
html-keyboard-response,656,1009595,null,"",null,,word,GLOBE,,,,,,,,,,,,
html-keyboard-response,657,1009797,null,"<div style=""font-size:42px;"">TORCH</div><img id = ""stim"" ><div class = green_square id = bottomsquare></div>",null,encoding,word_square,,,1,bottomsquare,32,true,,,TORCH,5,,,
html-keyboard-response,658,1010098,null,"<div style=""font-size:42px;"">TORCH</div>",null,,word,TORCH,,,,,,,,,,,,
html-keyboard-response,659,1011599,23.5,"",32,,word,TORCH,,,,,,,,,,,,
html-keyboard-response,660,1011800,null,"<div style=""font-size:42px;"">BANKER</div><img id = ""stim"" ><div class = red_square id = bottomsquare></div>",null,encoding,word_square,,,0,bottomsquare,none,true,,,BANKER,5,,,
html-keyboard-response,661,1012101,null,"<div style=""font-size:42px;"">BANKER</div>",null,,word,BANKER,,,,,,,,,,,,
html-keyboard-response,662,1013603,null,"",null,,word,BANKER,,,,,,,,,,,,
html-keyboard-response,663,1013804,null,"<div style=""font-size:42px;"">PERCH</div><img id = ""stim"" ><div class = red_square id = topsquare></div>",null,encoding,word_square,,,0,topsquare,none,true,,,PERCH,5,,,
html-keyboard-response,664,1014106,null,"<div style=""font-size:42px;"">PERCH</div>",null,,word,PERCH,,,,,,,,,,,,
html-keyboard-response,665,1015608,null,"",null,,word,PERCH,,,,,,,,,,,,
html-keyboard-response,666,1015809,null,"<div style=""font-size:42px;"">POISON</div><img id = ""stim"" ><div class = green_square id = topsquare></div>",null,encoding,word_square,,,1,topsquare,32,true,,,POISON,5,,,
html-keyboard-response,667,1016111,null,"<div style=""font-size:42px;"">POISON</div>",null,,word,POISON,,,,,,,,,,,,
html-keyboard-response,668,1017612,119.5,"",32,,word,POISON,,,,,,,,,,,,
html-keyboard-response,669,1017813,null,"<div style=""font-size:42px;"">PASTA</div><img id = ""stim"" ><div class = green_square id = bottomsquare></div>",null,encoding,word_square,,,1,bottomsquare,32,true,,,PASTA,5,,,
html-keyboard-response,670,1018115,null,"<div style=""font-size:42px;"">PASTA</div>",null,,word,PASTA,,,,,,,,,,,,
html-keyboard-response,671,1019616,325.60000002384186,"",32,,word,PASTA,,,,,,,,,,,,
html-keyboard-response,672,1019817,null,"<div style=""font-size:42px;"">SHAMPOO</div><img id = ""stim"" ><div class = red_square id = bottomsquare></div>",null,encoding,word_square,,,0,bottomsquare,none,true,,,SHAMPOO,5,,,
html-keyboard-response,673,1020119,null,"<div style=""font-size:42px;"">SHAMPOO</div>",null,,word,SHAMPOO,,,,,,,,,,,,
html-keyboard-response,674,1021621,null,"",null,,word,SHAMPOO,,,,,,,,,,,,
html-keyboard-response,675,1021822,null,"<div style=""font-size:42px;"">PARROT</div><img id = ""stim"" ><div class = red_square id = topsquare></div>",null,encoding,word_square,,,0,topsquare,none,true,,,PARROT,5,,,
html-keyboard-response,676,1022124,null,"<div style=""font-size:42px;"">PARROT</div>",null,,word,PARROT,,,,,,,,,,,,
html-keyboard-response,677,1023625,null,"",null,,word,PARROT,,,,,,,,,,,,
html-keyboard-response,678,1023826,null,"<div style=""font-size:42px;"">SCARECROW</div><img id = ""stim"" ><div class = green_square id = topsquare></div>",null,encoding,word_square,,,1,topsquare,32,true,,,SCARECROW,5,,,
html-keyboard-response,679,1024128,null,"<div style=""font-size:42px;"">SCARECROW</div>",null,,word,SCARECROW,,,,,,,,,,,,
html-keyboard-response,680,1025629,347.60000002384186,"",32,,word,SCARECROW,,,,,,,,,,,,
html-keyboard-response,681,1025830,null,"<div style=""font-size:42px;"">TOMBSTONE</div><img id = ""stim"" ><div class = red_square id = bottomsquare></div>",null,encoding,word_square,,,0,bottomsquare,none,true,,,TOMBSTONE,5,,,
html-keyboard-response,682,1026131,null,"<div style=""font-size:42px;"">TOMBSTONE</div>",null,,word,TOMBSTONE,,,,,,,,,,,,
html-keyboard-response,683,1027632,null,"",null,,word,TOMBSTONE,,,,,,,,,,,,
html-keyboard-response,684,1027834,null,"<div style=""font-size:42px;"">DRESSER</div><img id = ""stim"" ><div class = green_square id = bottomsquare></div>",null,encoding,word_square,,,1,bottomsquare,32,true,,,DRESSER,5,,,
html-keyboard-response,685,1028135,null,"<div style=""font-size:42px;"">DRESSER</div>",null,,word,DRESSER,,,,,,,,,,,,
html-keyboard-response,686,1029636,255.60000002384186,"",32,,word,DRESSER,,,,,,,,,,,,
html-keyboard-response,687,1029837,null,"<div style=""font-size:42px;"">BUREAU</div><img id = ""stim"" ><div class = green_square id = topsquare></div>",null,encoding,word_square,,,1,topsquare,32,true,,,BUREAU,5,,,
html-keyboard-response,688,1030138,null,"<div style=""font-size:42px;"">BUREAU</div>",null,,word,BUREAU,,,,,,,,,,,,
html-keyboard-response,689,1031640,444.3000000715256,"",32,,word,BUREAU,,,,,,,,,,,,
call-function,690,1031640,,"",,,,,,,,,,,,,,,,
html-keyboard-response,691,1031742,null,"",null,,,,,,,,,,,,,,,
math-period,692,1033693,3761.5000001192093,"",,,,,,,,,,,2,,,,,
html-keyboard-response,693,1033794,null,"",null,,,,,,,,,,,,,,,
math-period,694,1035341,2953.100000023842,"",,,,,,,,,,,2,,,,,
html-keyboard-response,695,1035444,null,"",null,,,,,,,,,,,,,,,
math-period,696,1037515,6515.099999785423,"",,,,,,,,,,,2,,,,,
html-keyboard-response,697,1037616,null,"",null,,,,,,,,,,,,,,,
math-period,698,1039201,2964.4999998807907,"",,,,,,,,,,,3,,,,,
html-keyboard-response,699,1039302,null,"",null,,,,,,,,,,,,,,,
math-period,700,1040697,2482.2999999523163,"",,,,,,,,,,,4,,,,,
html-keyboard-response,701,1040798,null,"",null,,,,,,,,,,,,,,,
math-period,702,1042341,2791.7999999523163,"",,,,,,,,,,,3,,,,,
html-keyboard-response,703,1042442,null,"",null,,,,,,,,,,,,,,,
math-period,704,1044681,4279.599999904633,"",,,,,,,,,,,2,,,,,
html-keyboard-response,705,1044782,null,"",null,,,,,,,,,,,,,,,
math-period,706,1047639,9371.099999785423,"",,,,,,,,,,,1,,,,,
html-keyboard-response,707,1047740,null,"",null,,,,,,,,,,,,,,,
math-period,708,1050177,7594.199999809265,"",,,,,,,,,,,4,,,,,
html-keyboard-response,709,1050278,null,"",null,,,,,,,,,,,,,,,
math-period,710,1055641,null,"",,,,,,,,,,,,,,,,
html-keyboard-response,711,1056643,null,"Recall Period!",null,,,,,,,,,,,,,,,
call-function,712,1056644,,"",,,,,,,,,,,,,,,,
html-keyboard-response,713,1056744,null,"",null,,,,,,,,,,,,,,,
recall-period,714,1062127,29916.29999959469,"",,,,,,,,,,,rooster,,,,,
html-keyboard-response,715,1062228,null,"",null,,,,,,,,,,,,,,,
recall-period,716,1066297,27122.599999904633,"",,,,,,,,,,,porpoise,,,,,
html-keyboard-response,717,1066399,null,"",null,,,,,,,,,,,,,,,
recall-period,718,1072936,44916.79999959469,"",,,,,,,,,,,dresser,,,,,
html-keyboard-response,719,1073038,null,"",null,,,,,,,,,,,,,,,
recall-period,720,1081984,54344.2000002861,"",,,,,,,,,,,banker,,,,,
html-keyboard-response,721,1082086,null,"",null,,,,,,,,,,,,,,,
recall-period,722,1085240,8540.700000405312,"",,,,,,,,,,,bandit,,,,,
html-keyboard-response,723,1085341,null,"",null,,,,,,,,,,,,,,,
recall-period,724,1096102,58457.50000035763,"",,,,,,,,,,,perch,,,,,
html-keyboard-response,725,1096203,null,"",null,,,,,,,,,,,,,,,
recall-period,726,1119163,214959.29999935627,"",,,,,,,,,,,headstone,,,,,
html-keyboard-response,727,1119264,null,"",null,,,,,,,,,,,,,,,
recall-period,728,1131644,null,"",,,,,,,,,,,,,,,,
html-keyboard-response,729,1132146,null,"Time's Up!",null,,,,,,,,,,,,,,,
html-keyboard-response,730,1146281,14134.100000023842,"<p> Good job! You have responded correctly to 100% of the trials. </p>
                      <p>Be sure to only press the spacebar if you see a GREEN square, and please keep your accuracy above 80%.</p>
                      <p> Press any key to continue the experiment. </p>",32,,,,,,,,,,,,,,,
html-keyboard-response,731,1150707,4425.300000071526,"<div style=""font-size:48px;"">Press any key to begin list 7 of 16 </div>",32,,,,,,,,,,,,,,,
html-keyboard-response,732,1153210,null,"<div style=""font-size:60px;"">+</div>",null,,,,,,,,,,,,,,,
html-keyboard-response,733,1153411,null,"<div style=""font-size:42px;"">HAYSTACK</div><img id = ""stim"" ><div class = red_square id = bottomsquare></div>",null,encoding,word_square,,,0,bottomsquare,none,true,,,HAYSTACK,6,,,
html-keyboard-response,734,1153713,null,"<div style=""font-size:42px;"">HAYSTACK</div>",null,,word,HAYSTACK,,,,,,,,,,,,
html-keyboard-response,735,1155215,null,"",null,,word,HAYSTACK,,,,,,,,,,,,
html-keyboard-response,736,1155416,null,"<div style=""font-size:42px;"">TOURIST</div><img id = ""stim"" ><div class = red_square id = topsquare></div>",null,encoding,word_square,,,0,topsquare,none,true,,,TOURIST,6,,,
html-keyboard-response,737,1155717,null,"<div style=""font-size:42px;"">TOURIST</div>",null,,word,TOURIST,,,,,,,,,,,,
html-keyboard-response,738,1157219,null,"",null,,word,TOURIST,,,,,,,,,,,,
html-keyboard-response,739,1157420,null,"<div style=""font-size:42px;"">LODGE</div><img id = ""stim"" ><div class = green_square id = topsquare></div>",null,encoding,word_square,,,1,topsquare,32,true,,,LODGE,6,,,
html-keyboard-response,740,1157722,null,"<div style=""font-size:42px;"">LODGE</div>",null,,word,LODGE,,,,,,,,,,,,
html-keyboard-response,741,1159223,108.70000004768372,"",32,,word,LODGE,,,,,,,,,,,,
html-keyboard-response,742,1159425,null,"<div style=""font-size:42px;"">BUILDER</div><img id = ""stim"" ><div class = red_square id = bottomsquare></div>",null,encoding,word_square,,,0,bottomsquare,none,true,,,BUILDER,6,,,
html-keyboard-response,743,1159726,null,"<div style=""font-size:42px;"">BUILDER</div>",null,,word,BUILDER,,,,,,,,,,,,
html-keyboard-response,744,1161227,null,"",null,,word,BUILDER,,,,,,,,,,,,
html-keyboard-response,745,1161428,null,"<div style=""font-size:42px;"">PAINTING</div><img id = ""stim"" ><div class = green_square id = bottomsquare></div>",null,encoding,word_square,,,1,bottomsquare,32,true,,,PAINTING,6,,,
html-keyboard-response,746,1161729,null,"<div style=""font-size:42px;"">PAINTING</div>",null,,word,PAINTING,,,,,,,,,,,,
html-keyboard-response,747,1163231,176.5,"",32,,word,PAINTING,,,,,,,,,,,,
html-keyboard-response,748,1163432,null,"<div style=""font-size:42px;"">ATTIC</div><img id = ""stim"" ><div class = green_square id = topsquare></div>",null,encoding,word_square,,,1,topsquare,32,true,,,ATTIC,6,,,
html-keyboard-response,749,1163733,null,"<div style=""font-size:42px;"">ATTIC</div>",null,,word,ATTIC,,,,,,,,,,,,
html-keyboard-response,750,1165234,452.10000002384186,"",32,,word,ATTIC,,,,,,,,,,,,
html-keyboard-response,751,1165435,null,"<div style=""font-size:42px;"">KNUCKLE</div><img id = ""stim"" ><div class = red_square id = topsquare></div>",null,encoding,word_square,,,0,topsquare,none,true,,,KNUCKLE,6,,,
html-keyboard-response,752,1165736,null,"<div style=""font-size:42px;"">KNUCKLE</div>",null,,word,KNUCKLE,,,,,,,,,,,,
html-keyboard-response,753,1167238,null,"",null,,word,KNUCKLE,,,,,,,,,,,,
html-keyboard-response,754,1167440,null,"<div style=""font-size:42px;"">SCARF</div><img id = ""stim"" ><div class = red_square id = bottomsquare></div>",null,encoding,word_square,,,0,bottomsquare,none,true,,,SCARF,6,,,
html-keyboard-response,755,1167741,null,"<div style=""font-size:42px;"">SCARF</div>",null,,word,SCARF,,,,,,,,,,,,
html-keyboard-response,756,1169242,null,"",null,,word,SCARF,,,,,,,,,,,,
html-keyboard-response,757,1169443,null,"<div style=""font-size:42px;"">THIEF</div><img id = ""stim"" ><div class = green_square id = bottomsquare></div>",null,encoding,word_square,,,1,bottomsquare,32,true,,,THIEF,6,,,
html-keyboard-response,758,1169744,null,"<div style=""font-size:42px;"">THIEF</div>",null,,word,THIEF,,,,,,,,,,,,
html-keyboard-response,759,1171245,280.5,"",32,,word,THIEF,,,,,,,,,,,,
html-keyboard-response,760,1171446,null,"<div style=""font-size:42px;"">RACKET</div><img id = ""stim"" ><div class = green_square id = topsquare></div>",null,encoding,word_square,,,1,topsquare,32,true,,,RACKET,6,,,
html-keyboard-response,761,1171748,null,"<div style=""font-size:42px;"">RACKET</div>",null,,word,RACKET,,,,,,,,,,,,
html-keyboard-response,762,1173249,662.1000000238419,"",32,,word,RACKET,,,,,,,,,,,,
html-keyboard-response,763,1173451,null,"<div style=""font-size:42px;"">COOKIE</div><img id = ""stim"" ><div class = red_square id = topsquare></div>",null,encoding,word_square,,,0,topsquare,none,true,,,COOKIE,6,,,
html-keyboard-response,764,1173752,null,"<div style=""font-size:42px;"">COOKIE</div>",null,,word,COOKIE,,,,,,,,,,,,
html-keyboard-response,765,1175253,null,"",null,,word,COOKIE,,,,,,,,,,,,
html-keyboard-response,766,1175454,null,"<div style=""font-size:42px;"">MOTEL</div><img id = ""stim"" ><div class = green_square id = bottomsquare></div>",null,encoding,word_square,,,1,bottomsquare,32,true,,,MOTEL,6,,,
html-keyboard-response,767,1175756,null,"<div style=""font-size:42px;"">MOTEL</div>",null,,word,MOTEL,,,,,,,,,,,,
html-keyboard-response,768,1177257,544.1000000238419,"",32,,word,MOTEL,,,,,,,,,,,,
html-keyboard-response,769,1177459,null,"<div style=""font-size:42px;"">DRILL</div><img id = ""stim"" ><div class = green_square id = topsquare></div>",null,encoding,word_square,,,1,topsquare,32,true,,,DRILL,6,,,
html-keyboard-response,770,1177761,null,"<div style=""font-size:42px;"">DRILL</div>",null,,word,DRILL,,,,,,,,,,,,
html-keyboard-response,771,1179262,515,"",32,,word,DRILL,,,,,,,,,,,,
html-keyboard-response,772,1179463,null,"<div style=""font-size:42px;"">SPOON</div><img id = ""stim"" ><div class = red_square id = bottomsquare></div>",null,encoding,word_square,,,0,bottomsquare,none,true,,,SPOON,6,,,
html-keyboard-response,773,1179764,null,"<div style=""font-size:42px;"">SPOON</div>",null,,word,SPOON,,,,,,,,,,,,
html-keyboard-response,774,1181266,null,"",null,,word,SPOON,,,,,,,,,,,,
html-keyboard-response,775,1181467,null,"<div style=""font-size:42px;"">SWORD</div><img id = ""stim"" ><div class = red_square id = topsquare></div>",null,encoding,word_square,,,0,topsquare,none,true,,,SWORD,6,,,
html-keyboard-response,776,1181768,null,"<div style=""font-size:42px;"">SWORD</div>",null,,word,SWORD,,,,,,,,,,,,
html-keyboard-response,777,1183269,null,"",null,,word,SWORD,,,,,,,,,,,,
html-keyboard-response,778,1183470,null,"<div style=""font-size:42px;"">WRENCH</div><img id = ""stim"" ><div class = green_square id = bottomsquare></div>",null,encoding,word_square,,,1,bottomsquare,32,true,,,WRENCH,6,,,
html-keyboard-response,779,1183771,null,"<div style=""font-size:42px;"">WRENCH</div>",null,,word,WRENCH,,,,,,,,,,,,
html-keyboard-response,780,1185272,370.7000000476837,"",32,,word,WRENCH,,,,,,,,,,,,
call-function,781,1185273,,"",,,,,,,,,,,,,,,,
html-keyboard-response,782,1185374,null,"",null,,,,,,,,,,,,,,,
math-period,783,1187403,3987.8000000715256,"",,,,,,,,,,,6,,,,,
html-keyboard-response,784,1187504,null,"",null,,,,,,,,,,,,,,,
math-period,785,1188677,2292.600000023842,"",,,,,,,,,,,3,,,,,
html-keyboard-response,786,1188778,null,"",null,,,,,,,,,,,,,,,
math-period,787,1189493,1355.7000000476837,"",,,,,,,,,,,3,,,,,
html-keyboard-response,788,1189594,null,"",null,,,,,,,,,,,,,,,
math-period,789,1191433,3622.9000000953674,"",,,,,,,,,,,4,,,,,
html-keyboard-response,790,1191534,null,"",null,,,,,,,,,,,,,,,
math-period,791,1192577,2016.2999999523163,"",,,,,,,,,,,3,,,,,
html-keyboard-response,792,1192678,null,"",null,,,,,,,,,,,,,,,
math-period,793,1193944,2446.7999999523163,"",,,,,,,,,,,6,,,,,
html-keyboard-response,794,1194045,null,"",null,,,,,,,,,,,,,,,
math-period,795,1195567,2937.4000000953674,"",,,,,,,,,,,4,,,,,
html-keyboard-response,796,1195667,null,"",null,,,,,,,,,,,,,,,
math-period,797,1197724,6769.000000238419,"",,,,,,,,,,,2,,,,,
html-keyboard-response,798,1197826,null,"",null,,,,,,,,,,,,,,,
math-period,799,1200900,5796,"",,,,,,,,,,,4,,,,,
html-keyboard-response,800,1201001,null,"",null,,,,,,,,,,,,,,,
math-period,801,1203794,8877.100000023842,"",,,,,,,,,,,1,,,,,
html-keyboard-response,802,1203895,null,"",null,,,,,,,,,,,,,,,
math-period,803,1205900,3815.600000143051,"",,,,,,,,,,,5,,,,,
html-keyboard-response,804,1206000,null,"",null,,,,,,,,,,,,,,,
math-period,805,1208038,3902.2000000476837,"",,,,,,,,,,,2,,,,,
html-keyboard-response,806,1208140,null,"",null,,,,,,,,,,,,,,,
math-period,807,1209274,null,"",,,,,,,,,,,,,,,,
html-keyboard-response,808,1210276,null,"Recall Period!",null,,,,,,,,,,,,,,,
call-function,809,1210276,,"",,,,,,,,,,,,,,,,
html-keyboard-response,810,1210378,null,"",null,,,,,,,,,,,,,,,
recall-period,811,1213561,13821.50000011921,"",,,,,,,,,,,lodge,,,,,
html-keyboard-response,812,1213662,null,"",null,,,,,,,,,,,,,,,
recall-period,813,1215467,6871.299999594688,"",,,,,,,,,,,motel,,,,,
html-keyboard-response,814,1215569,null,"",null,,,,,,,,,,,,,,,
recall-period,815,1218068,12131.199999570847,"",,,,,,,,,,,builder,,,,,
html-keyboard-response,816,1218170,null,"",null,,,,,,,,,,,,,,,
recall-period,817,1222588,25587.400000214577,"",,,,,,,,,,,cookie,,,,,
html-keyboard-response,818,1222689,null,"",null,,,,,,,,,,,,,,,
recall-period,819,1227144,26362.89999961853,"",,,,,,,,,,,knuckle,,,,,
html-keyboard-response,820,1227245,null,"",null,,,,,,,,,,,,,,,
recall-period,821,1248330,116260.7999997139,"",,,,,,,,,,,thief,,,,,
html-keyboard-response,822,1248432,null,"",null,,,,,,,,,,,,,,,
recall-period,823,1255537,38487.20000016689,"",,,,,,,,,,,wrench,,,,,
html-keyboard-response,824,1255638,null,"",null,,,,,,,,,,,,,,,
recall-period,825,1277325,125385.19999980927,"",,,,,,,,,,,drill,,,,,
html-keyboard-response,826,1277427,null,"",null,,,,,,,,,,,,,,,
recall-period,827,1285277,null,"",,,,,,,,,,,,,,,,
html-keyboard-response,828,1285779,null,"Time's Up!",null,,,,,,,,,,,,,,,
html-keyboard-response,829,1297673,11892.699999928474,"<p> Good job! You have responded correctly to 100% of the trials. </p>
                      <p>Be sure to only press the spacebar if you see a GREEN square, and please keep your accuracy above 80%.</p>
                      <p> Press any key to continue the experiment. </p>",39,,,,,,,,,,,,,,,
html-keyboard-response,830,1313689,16015.600000023842,"<div style=""font-size:48px;"">Press any key to begin list 8 of 16 </div>",32,,,,,,,,,,,,,,,
html-keyboard-response,831,1316192,null,"<div style=""font-size:60px;"">+</div>",null,,,,,,,,,,,,,,,
html-keyboard-response,832,1316393,null,"<div style=""font-size:42px;"">TORTOISE</div><img id = ""stim"" ><div class = green_square id = bottomsquare></div>",null,encoding,word_square,,,1,bottomsquare,32,true,,,TORTOISE,7,,,
html-keyboard-response,833,1316694,null,"<div style=""font-size:42px;"">TORTOISE</div>",null,,word,TORTOISE,,,,,,,,,,,,
html-keyboard-response,834,1318196,25,"",32,,word,TORTOISE,,,,,,,,,,,,
html-keyboard-response,835,1318397,null,"<div style=""font-size:42px;"">WARDROBE</div><img id = ""stim"" ><div class = red_square id = topsquare></div>",null,encoding,word_square,,,0,topsquare,none,true,,,WARDROBE,7,,,
html-keyboard-response,836,1318699,null,"<div style=""font-size:42px;"">WARDROBE</div>",null,,word,WARDROBE,,,,,,,,,,,,
html-keyboard-response,837,1320200,null,"",null,,word,WARDROBE,,,,,,,,,,,,
html-keyboard-response,838,1320402,null,"<div style=""font-size:42px;"">MATCH</div><img id = ""stim"" ><div class = red_square id = bottomsquare></div>",null,encoding,word_square,,,0,bottomsquare,none,true,,,MATCH,7,,,
html-keyboard-response,839,1320703,null,"<div style=""font-size:42px;"">MATCH</div>",null,,word,MATCH,,,,,,,,,,,,
html-keyboard-response,840,1322205,null,"",null,,word,MATCH,,,,,,,,,,,,
html-keyboard-response,841,1322406,null,"<div style=""font-size:42px;"">ZEBRA</div><img id = ""stim"" ><div class = green_square id = topsquare></div>",null,encoding,word_square,,,1,topsquare,32,true,,,ZEBRA,7,,,
html-keyboard-response,842,1322707,null,"<div style=""font-size:42px;"">ZEBRA</div>",null,,word,ZEBRA,,,,,,,,,,,,
html-keyboard-response,843,1324208,194.5,"",32,,word,ZEBRA,,,,,,,,,,,,
html-keyboard-response,844,1324409,null,"<div style=""font-size:42px;"">COOK</div><img id = ""stim"" ><div class = green_square id = bottomsquare></div>",null,encoding,word_square,,,1,bottomsquare,32,true,,,COOK,7,,,
html-keyboard-response,845,1324711,null,"<div style=""font-size:42px;"">COOK</div>",null,,word,COOK,,,,,,,,,,,,
html-keyboard-response,846,1326212,224.5,"",32,,word,COOK,,,,,,,,,,,,
html-keyboard-response,847,1326413,null,"<div style=""font-size:42px;"">SHELF</div><img id = ""stim"" ><div class = red_square id = topsquare></div>",null,encoding,word_square,,,0,topsquare,none,true,,,SHELF,7,,,
html-keyboard-response,848,1326715,null,"<div style=""font-size:42px;"">SHELF</div>",null,,word,SHELF,,,,,,,,,,,,
html-keyboard-response,849,1328216,null,"",null,,word,SHELF,,,,,,,,,,,,
html-keyboard-response,850,1328417,null,"<div style=""font-size:42px;"">PASSAGE</div><img id = ""stim"" ><div class = green_square id = topsquare></div>",null,encoding,word_square,,,1,topsquare,32,true,,,PASSAGE,7,,,
html-keyboard-response,851,1328718,null,"<div style=""font-size:42px;"">PASSAGE</div>",null,,word,PASSAGE,,,,,,,,,,,,
html-keyboard-response,852,1330219,319.10000002384186,"",32,,word,PASSAGE,,,,,,,,,,,,
html-keyboard-response,853,1330420,null,"<div style=""font-size:42px;"">VICTIM</div><img id = ""stim"" ><div class = green_square id = bottomsquare></div>",null,encoding,word_square,,,1,bottomsquare,32,true,,,VICTIM,7,,,
html-keyboard-response,854,1330721,null,"<div style=""font-size:42px;"">VICTIM</div>",null,,word,VICTIM,,,,,,,,,,,,
html-keyboard-response,855,1332223,229.90000009536743,"",32,,word,VICTIM,,,,,,,,,,,,
html-keyboard-response,856,1332424,null,"<div style=""font-size:42px;"">FRIES</div><img id = ""stim"" ><div class = red_square id = bottomsquare></div>",null,encoding,word_square,,,0,bottomsquare,none,true,,,FRIES,7,,,
html-keyboard-response,857,1332725,null,"<div style=""font-size:42px;"">FRIES</div>",null,,word,FRIES,,,,,,,,,,,,
html-keyboard-response,858,1334227,null,"",null,,word,FRIES,,,,,,,,,,,,
html-keyboard-response,859,1334429,null,"<div style=""font-size:42px;"">CUPBOARD</div><img id = ""stim"" ><div class = red_square id = topsquare></div>",null,encoding,word_square,,,0,topsquare,none,true,,,CUPBOARD,7,,,
html-keyboard-response,860,1334729,null,"<div style=""font-size:42px;"">CUPBOARD</div>",null,,word,CUPBOARD,,,,,,,,,,,,
html-keyboard-response,861,1336231,null,"",null,,word,CUPBOARD,,,,,,,,,,,,
html-keyboard-response,862,1336432,null,"<div style=""font-size:42px;"">LUMBER</div><img id = ""stim"" ><div class = green_square id = topsquare></div>",null,encoding,word_square,,,1,topsquare,32,true,,,LUMBER,7,,,
html-keyboard-response,863,1336733,null,"<div style=""font-size:42px;"">LUMBER</div>",null,,word,LUMBER,,,,,,,,,,,,
html-keyboard-response,864,1338235,317.7000000476837,"",32,,word,LUMBER,,,,,,,,,,,,
html-keyboard-response,865,1338436,null,"<div style=""font-size:42px;"">COBWEB</div><img id = ""stim"" ><div class = green_square id = bottomsquare></div>",null,encoding,word_square,,,1,bottomsquare,32,true,,,COBWEB,7,,,
html-keyboard-response,866,1338738,null,"<div style=""font-size:42px;"">COBWEB</div>",null,,word,COBWEB,,,,,,,,,,,,
html-keyboard-response,867,1340239,455.60000002384186,"",32,,word,COBWEB,,,,,,,,,,,,
html-keyboard-response,868,1340441,null,"<div style=""font-size:42px;"">DIME</div><img id = ""stim"" ><div class = red_square id = bottomsquare></div>",null,encoding,word_square,,,0,bottomsquare,none,true,,,DIME,7,,,
html-keyboard-response,869,1340742,null,"<div style=""font-size:42px;"">DIME</div>",null,,word,DIME,,,,,,,,,,,,
html-keyboard-response,870,1342244,null,"",null,,word,DIME,,,,,,,,,,,,
html-keyboard-response,871,1342445,null,"<div style=""font-size:42px;"">QUARTER</div><img id = ""stim"" ><div class = green_square id = topsquare></div>",null,encoding,word_square,,,1,topsquare,32,true,,,QUARTER,7,,,
html-keyboard-response,872,1342746,null,"<div style=""font-size:42px;"">QUARTER</div>",null,,word,QUARTER,,,,,,,,,,,,
html-keyboard-response,873,1344247,363.39999997615814,"",32,,word,QUARTER,,,,,,,,,,,,
html-keyboard-response,874,1344449,null,"<div style=""font-size:42px;"">PLANET</div><img id = ""stim"" ><div class = red_square id = topsquare></div>",null,encoding,word_square,,,0,topsquare,none,true,,,PLANET,7,,,
html-keyboard-response,875,1344750,null,"<div style=""font-size:42px;"">PLANET</div>",null,,word,PLANET,,,,,,,,,,,,
html-keyboard-response,876,1346251,null,"",null,,word,PLANET,,,,,,,,,,,,
html-keyboard-response,877,1346452,null,"<div style=""font-size:42px;"">OUTFIT</div><img id = ""stim"" ><div class = red_square id = bottomsquare></div>",null,encoding,word_square,,,0,bottomsquare,none,true,,,OUTFIT,7,,,
html-keyboard-response,878,1346753,null,"<div style=""font-size:42px;"">OUTFIT</div>",null,,word,OUTFIT,,,,,,,,,,,,
html-keyboard-response,879,1348255,null,"",null,,word,OUTFIT,,,,,,,,,,,,
call-function,880,1348255,,"",,,,,,,,,,,,,,,,
html-keyboard-response,881,1348356,null,"",null,,,,,,,,,,,,,,,
math-period,882,1351085,5092.899999976158,"",,,,,,,,,,,3,,,,,
html-keyboard-response,883,1351186,null,"",null,,,,,,,,,,,,,,,
math-period,884,1352720,2774.4000000953674,"",,,,,,,,,,,4,,,,,
html-keyboard-response,885,1352822,null,"",null,,,,,,,,,,,,,,,
math-period,886,1355108,4354.200000047684,"",,,,,,,,,,,5,,,,,
html-keyboard-response,887,1355209,null,"",null,,,,,,,,,,,,,,,
math-period,888,1356730,2864,"",,,,,,,,,,,4,,,,,
html-keyboard-response,889,1356831,null,"",null,,,,,,,,,,,,,,,
math-period,890,1358368,2844.600000143051,"",,,,,,,,,,,4,,,,,
html-keyboard-response,891,1358469,null,"",null,,,,,,,,,,,,,,,
math-period,892,1359866,2585,"",,,,,,,,,,,3,,,,,
html-keyboard-response,893,1359968,null,"",null,,,,,,,,,,,,,,,
math-period,894,1361305,2446.7000000476837,"",,,,,,,,,,,4,,,,,
html-keyboard-response,895,1361407,null,"",null,,,,,,,,,,,,,,,
math-period,896,1362673,2271.4000000953674,"",,,,,,,,,,,3,,,,,
html-keyboard-response,897,1362774,null,"",null,,,,,,,,,,,,,,,
math-period,898,1365247,4876.699999928474,"",,,,,,,,,,,5,,,,,
html-keyboard-response,899,1365349,null,"",null,,,,,,,,,,,,,,,
math-period,900,1366817,2831.4000000953674,"",,,,,,,,,,,4,,,,,
html-keyboard-response,901,1366918,null,"",null,,,,,,,,,,,,,,,
math-period,902,1368981,3917,"",,,,,,,,,,,2,,,,,
html-keyboard-response,903,1369083,null,"",null,,,,,,,,,,,,,,,
math-period,904,1370619,2850.4999998807907,"",,,,,,,,,,,1,,,,,
html-keyboard-response,905,1370721,null,"",null,,,,,,,,,,,,,,,
math-period,906,1372226,2764.100000023842,"",,,,,,,,,,,3,,,,,
html-keyboard-response,907,1372327,null,"",null,,,,,,,,,,,,,,,
math-period,908,1372329,null,"",,,,,,,,,,,,,,,,
html-keyboard-response,909,1373330,null,"Recall Period!",null,,,,,,,,,,,,,,,
call-function,910,1373331,,"",,,,,,,,,,,,,,,,
html-keyboard-response,911,1373431,null,"",null,,,,,,,,,,,,,,,
recall-period,912,1376791,16753.800000429153,"",,,,,,,,,,,wardrobe,,,,,
html-keyboard-response,913,1376893,null,"",null,,,,,,,,,,,,,,,
recall-period,914,1379339,10384.499999642372,"",,,,,,,,,,,outfit,,,,,
html-keyboard-response,915,1379440,null,"",null,,,,,,,,,,,,,,,
recall-period,916,1382105,10187.899999976158,"",,,,,,,,,,,passage,,,,,
html-keyboard-response,917,1382206,null,"",null,,,,,,,,,,,,,,,
recall-period,918,1389687,55253.29999923706,"",,,,,,,,,,,cobweb,,,,,
html-keyboard-response,919,1389789,null,"",null,,,,,,,,,,,,,,,
recall-period,920,1395972,40106.99999976158,"",,,,,,,,,,,cupboard,,,,,
html-keyboard-response,921,1396074,null,"",null,,,,,,,,,,,,,,,
recall-period,922,1442394,407588.5999997854,"",,,,,,,,,,,tortoise,,,,,
html-keyboard-response,923,1442495,null,"",null,,,,,,,,,,,,,,,
recall-period,924,1448332,null,"",,,,,,,,,,,,,,,,
html-keyboard-response,925,1448834,null,"Time's Up!",null,,,,,,,,,,,,,,,
html-keyboard-response,926,1450918,2083.8000000715256,"<p> Good job! You have responded correctly to 100% of the trials. </p>
                      <p>Be sure to only press the spacebar if you see a GREEN square, and please keep your accuracy above 80%.</p>
                      <p> Press any key to continue the experiment. </p>",32,,,,,,,,,,,,,,,
html-keyboard-response,927,1453352,2433.3000000715256,"<div style=""font-size:48px;"">Press any key to begin list 9 of 16 </div>",32,,,,,,,,,,,,,,,
html-keyboard-response,928,1455854,null,"<div style=""font-size:60px;"">+</div>",null,,,,,,,,,,,,,,,
html-keyboard-response,929,1456055,null,"<div style=""font-size:42px;"">COMET</div><img id = ""stim"" ><div class = green_square id = topsquare></div>",null,encoding,word_square,,,1,topsquare,32,true,,,COMET,8,,,
html-keyboard-response,930,1456356,271,"<div style=""font-size:42px;"">COMET</div>",32,,word,COMET,,,,,,,,,,,,
html-keyboard-response,931,1457857,null,"",null,,word,COMET,,,,,,,,,,,,
html-keyboard-response,932,1458058,null,"<div style=""font-size:42px;"">STAR</div><img id = ""stim"" ><div class = green_square id = bottomsquare></div>",null,encoding,word_square,,,1,bottomsquare,32,true,,,STAR,8,,,
