trial_type,trial_index,time_elapsed,rt,stimulus,key_press,exp_phase,test_part,word,task,targ_cond,sq_pos,correctKeyCode,correct,value,response,Word,List,RecResp,serial_pos,colorChosen
pavlovia,0,2462,,"",,,,,,,,,,,,,,,,
external-html,1,8932,6287.9000000059605,"",,,,,,,,,,,,,,,,
html-keyboard-response,2,11035,2098.300000011921,"Welcome to the experiment. Press any key to begin.",32,,,,,,,,,,,,,,,
html-keyboard-response,3,23842,12804.100000023842,"<p>You will see a list of words and colored squares in the following task.<p><p>Press the spacebar whenever you see a GREEN square.<p><p>Do not press a key if the square is RED.<p><p>Press the spacebar to continue.</p>",32,,,,,,,,,,,,,,,
html-keyboard-response,4,46195,21847.70000001788,"<p>Please try to remember as many of the words as you can, and try to think about the meaning of each word as it appears.<p><p>After the detection and encoding task you will be asked to solve some math problems for 24 seconds.<p> Please solve as many problems as you can in the time given. <p><p><p>Press the spacebar to continue.</p>",32,,,,,,,,,,,,,,,
html-keyboard-response,5,54410,7711.800000011921,"After solving the math problems, you will be asked to type in as many words <p>from the previous list as you can remember for 75 seconds.<p> If you finish recalling before the 75 seconds are up,<p> just sit tight and try to think of any more words you could have missed. <p><p><p>Press the spacebar to continue.</p>",32,,,,,,,,,,,,,,,
html-keyboard-response,6,61491,6577.0999999940395,"There will be 16 lists of words and recall, followed  by<p><p> a recognition phase. The experiment is expected to take up to 90 minutes.<p>We will begin with a brief practice session.<p>Press the spacebar to begin the practice.</p>",32,,,,,,,,,,,,,,,
html-keyboard-response,7,63998,null,"<div style=""font-size:60px;"">+</div>",null,,,,,,,,,,,,,,,
html-keyboard-response,8,64208,null,"<div style=""font-size:42px;"">HAPPY</div><img id = ""stim"" ><div class = red_square id = ""bottomsquare"" ></div>",null,practice,word_square,HAPPY,prac_response,0,Bottom,none,true,,,,,,,
html-keyboard-response,9,64512,null,"<div style=""font-size:42px;"">HAPPY</div>",null,,word,HAPPY,,,,,,,,,,,,
html-keyboard-response,10,66025,null,"",null,,word,HAPPY,,,,,,,,,,,,
html-keyboard-response,11,66231,null,"<div style=""font-size:42px;"">COLD</div><img id = ""stim"" ><div class = green_square id = ""bottomsquare"" ></div>",null,practice,word_square,COLD,prac_response,1,Bottom,32,true,,,,,,,
html-keyboard-response,12,66533,256.7999999821186,"<div style=""font-size:42px;"">COLD</div>",32,,word,COLD,,,,,,,,,,,,
html-keyboard-response,13,68036,null,"",null,,word,COLD,,,,,,,,,,,,
html-keyboard-response,14,68239,null,"<div style=""font-size:42px;"">HEAVY</div><img id = ""stim"" ><div class = green_square id = ""topsquare"" ></div>",null,practice,word_square,HEAVY,prac_response,1,Top,32,true,,,,,,,
html-keyboard-response,15,68542,185.09999999403954,"<div style=""font-size:42px;"">HEAVY</div>",32,,word,HEAVY,,,,,,,,,,,,
html-keyboard-response,16,70045,null,"",null,,word,HEAVY,,,,,,,,,,,,
html-keyboard-response,17,70248,null,"<div style=""font-size:42px;"">FUNNY</div><img id = ""stim"" ><div class = red_square id = ""topsquare"" ></div>",null,practice,word_square,FUNNY,prac_response,0,Top,none,true,,,,,,,
html-keyboard-response,18,70552,null,"<div style=""font-size:42px;"">FUNNY</div>",null,,word,FUNNY,,,,,,,,,,,,
html-keyboard-response,19,72058,null,"",null,,word,FUNNY,,,,,,,,,,,,
html-keyboard-response,20,72261,null,"<div style=""font-size:42px;"">SCARY</div><img id = ""stim"" ><div class = green_square id = ""bottomsquare"" ></div>",null,practice,word_square,SCARY,prac_response,1,Bottom,32,true,,,,,,,
html-keyboard-response,21,72564,115.7000000178814,"<div style=""font-size:42px;"">SCARY</div>",32,,word,SCARY,,,,,,,,,,,,
html-keyboard-response,22,74068,null,"",null,,word,SCARY,,,,,,,,,,,,
html-keyboard-response,23,74276,null,"<div style=""font-size:42px;"">PEACEFUL</div><img id = ""stim"" ><div class = green_square id = ""topsquare"" ></div>",null,practice,word_square,PEACEFUL,prac_response,1,Top,32,true,,,,,,,
html-keyboard-response,24,74584,198.90000000596046,"<div style=""font-size:42px;"">PEACEFUL</div>",32,,word,PEACEFUL,,,,,,,,,,,,
html-keyboard-response,25,76105,null,"",null,,word,PEACEFUL,,,,,,,,,,,,
html-keyboard-response,26,76309,null,"<div style=""font-size:42px;"">LITTLE</div><img id = ""stim"" ><div class = red_square id = ""bottomsquare"" ></div>",null,practice,word_square,LITTLE,prac_response,0,Bottom,none,true,,,,,,,
html-keyboard-response,27,76611,null,"<div style=""font-size:42px;"">LITTLE</div>",null,,word,LITTLE,,,,,,,,,,,,
html-keyboard-response,28,78115,null,"",null,,word,LITTLE,,,,,,,,,,,,
html-keyboard-response,29,78319,null,"<div style=""font-size:42px;"">TIRED</div><img id = ""stim"" ><div class = red_square id = ""topsquare"" ></div>",null,practice,word_square,TIRED,prac_response,0,Top,none,true,,,,,,,
html-keyboard-response,30,78624,null,"<div style=""font-size:42px;"">TIRED</div>",null,,word,TIRED,,,,,,,,,,,,
html-keyboard-response,31,80128,null,"",null,,word,TIRED,,,,,,,,,,,,
html-keyboard-response,32,80331,null,"<div style=""font-size:42px;"">ENTERTAINING</div><img id = ""stim"" ><div class = red_square id = ""bottomsquare"" ></div>",null,practice,word_square,ENTERTAINING,prac_response,0,Bottom,none,true,,,,,,,
html-keyboard-response,33,80634,null,"<div style=""font-size:42px;"">ENTERTAINING</div>",null,,word,ENTERTAINING,,,,,,,,,,,,
html-keyboard-response,34,82138,null,"",null,,word,ENTERTAINING,,,,,,,,,,,,
html-keyboard-response,35,82347,null,"<div style=""font-size:42px;"">GRATEFUL</div><img id = ""stim"" ><div class = green_square id = ""bottomsquare"" ></div>",null,practice,word_square,GRATEFUL,prac_response,1,Bottom,32,true,,,,,,,
html-keyboard-response,36,82651,188.2000000178814,"<div style=""font-size:42px;"">GRATEFUL</div>",32,,word,GRATEFUL,,,,,,,,,,,,
html-keyboard-response,37,84155,null,"",null,,word,GRATEFUL,,,,,,,,,,,,
html-keyboard-response,38,84358,null,"<div style=""font-size:42px;"">LOUD</div><img id = ""stim"" ><div class = red_square id = ""topsquare"" ></div>",null,practice,word_square,LOUD,prac_response,0,Top,none,true,,,,,,,
html-keyboard-response,39,84660,null,"<div style=""font-size:42px;"">LOUD</div>",null,,word,LOUD,,,,,,,,,,,,
html-keyboard-response,40,86167,null,"",null,,word,LOUD,,,,,,,,,,,,
html-keyboard-response,41,86371,null,"<div style=""font-size:42px;"">SMART</div><img id = ""stim"" ><div class = green_square id = ""topsquare"" ></div>",null,practice,word_square,SMART,prac_response,1,Top,32,true,,,,,,,
html-keyboard-response,42,86674,189.10000002384186,"<div style=""font-size:42px;"">SMART</div>",32,,word,SMART,,,,,,,,,,,,
html-keyboard-response,43,88177,null,"",null,,word,SMART,,,,,,,,,,,,
html-keyboard-response,44,88380,null,"<div style=""font-size:42px;"">SMOOTH</div><img id = ""stim"" ><div class = green_square id = ""bottomsquare"" ></div>",null,practice,word_square,SMOOTH,prac_response,1,Bottom,32,true,,,,,,,
html-keyboard-response,45,88683,179.90000000596046,"<div style=""font-size:42px;"">SMOOTH</div>",32,,word,SMOOTH,,,,,,,,,,,,
html-keyboard-response,46,90187,null,"",null,,word,SMOOTH,,,,,,,,,,,,
html-keyboard-response,47,90389,null,"<div style=""font-size:42px;"">DISHONEST</div><img id = ""stim"" ><div class = red_square id = ""bottomsquare"" ></div>",null,practice,word_square,DISHONEST,prac_response,0,Bottom,none,true,,,,,,,
html-keyboard-response,48,90692,null,"<div style=""font-size:42px;"">DISHONEST</div>",null,,word,DISHONEST,,,,,,,,,,,,
html-keyboard-response,49,92194,null,"",null,,word,DISHONEST,,,,,,,,,,,,
html-keyboard-response,50,92397,null,"<div style=""font-size:42px;"">WEALTHY</div><img id = ""stim"" ><div class = green_square id = ""topsquare"" ></div>",null,practice,word_square,WEALTHY,prac_response,1,Top,32,true,,,,,,,
html-keyboard-response,51,92702,145.5,"<div style=""font-size:42px;"">WEALTHY</div>",32,,word,WEALTHY,,,,,,,,,,,,
html-keyboard-response,52,94210,null,"",null,,word,WEALTHY,,,,,,,,,,,,
html-keyboard-response,53,94413,null,"<div style=""font-size:42px;"">BEAUTIFUL</div><img id = ""stim"" ><div class = red_square id = ""topsquare"" ></div>",null,practice,word_square,BEAUTIFUL,prac_response,0,Top,none,true,,,,,,,
html-keyboard-response,54,94715,null,"<div style=""font-size:42px;"">BEAUTIFUL</div>",null,,word,BEAUTIFUL,,,,,,,,,,,,
html-keyboard-response,55,96218,null,"",null,,word,BEAUTIFUL,,,,,,,,,,,,
html-keyboard-response,56,101194,4972.899999976158,"<p> Good job! You responded correctly to 100% of the trials. </p>
                  <p>Be sure to only press the spacebar if you see a GREEN square, and please keep your accuracy above 80%.</p>
                  <p>We're going to try once more to make sure you understand the task. press any key to continue. </p>",32,,,,,,,,,,,,,,,
html-keyboard-response,57,104069,2871.9000000059605,"<p>You will see a list of words and colored squares in the following task.<p><p>Press the spacebar whenever you see a GREEN square.<p><p>Do not press a key if the square is RED<p><p>Press the spacebar to continue.</p>",32,,,,,,,,,,,,,,,
html-keyboard-response,58,106574,null,"<div style=""font-size:60px;"">+</div>",null,,,,,,,,,,,,,,,
html-keyboard-response,59,106782,null,"<div style=""font-size:42px;"">HAPPY</div><img id = ""stim"" ><div class = red_square id = ""bottomsquare"" ></div>",null,practice2,word_square,HAPPY,prac_response,0,Bottom,none,true,,,,,,,
html-keyboard-response,60,107103,null,"<div style=""font-size:42px;"">HAPPY</div>",null,,word,HAPPY,,,,,,,,,,,,
html-keyboard-response,61,108608,null,"",null,,word,HAPPY,,,,,,,,,,,,
html-keyboard-response,62,108810,null,"<div style=""font-size:42px;"">COLD</div><img id = ""stim"" ><div class = green_square id = ""bottomsquare"" ></div>",null,practice2,word_square,,prac_response,1,Bottom,32,true,,,,,,,
html-keyboard-response,63,109112,271.19999998807907,"<div style=""font-size:42px;"">COLD</div>",32,,word,COLD,,,,,,,,,,,,
html-keyboard-response,64,110616,null,"",null,,word,COLD,,,,,,,,,,,,
html-keyboard-response,65,110818,null,"<div style=""font-size:42px;"">HEAVY</div><img id = ""stim"" ><div class = green_square id = ""topsquare"" ></div>",null,practice2,word_square,,prac_response,1,Top,32,true,,,,,,,
html-keyboard-response,66,111121,111.5,"<div style=""font-size:42px;"">HEAVY</div>",32,,word,HEAVY,,,,,,,,,,,,
html-keyboard-response,67,112623,null,"",null,,word,HEAVY,,,,,,,,,,,,
html-keyboard-response,68,112826,null,"<div style=""font-size:42px;"">FUNNY</div><img id = ""stim"" ><div class = red_square id = ""topsquare"" ></div>",null,practice2,word_square,,prac_response,0,Top,none,true,,,,,,,
html-keyboard-response,69,113128,null,"<div style=""font-size:42px;"">FUNNY</div>",null,,word,FUNNY,,,,,,,,,,,,
html-keyboard-response,70,114632,null,"",null,,word,FUNNY,,,,,,,,,,,,
html-keyboard-response,71,114837,null,"<div style=""font-size:42px;"">SCARY</div><img id = ""stim"" ><div class = green_square id = ""bottomsquare"" ></div>",null,practice2,word_square,,prac_response,1,Bottom,32,true,,,,,,,
html-keyboard-response,72,115139,132.90000000596046,"<div style=""font-size:42px;"">SCARY</div>",32,,word,SCARY,,,,,,,,,,,,
html-keyboard-response,73,116643,null,"",null,,word,SCARY,,,,,,,,,,,,
html-keyboard-response,74,116846,null,"<div style=""font-size:42px;"">PEACEFUL</div><img id = ""stim"" ><div class = green_square id = ""topsquare"" ></div>",null,practice2,word_square,,prac_response,1,Top,32,true,,,,,,,
html-keyboard-response,75,117148,171.80000001192093,"<div style=""font-size:42px;"">PEACEFUL</div>",32,,word,PEACEFUL,,,,,,,,,,,,
html-keyboard-response,76,118657,null,"",null,,word,PEACEFUL,,,,,,,,,,,,
html-keyboard-response,77,118860,null,"<div style=""font-size:42px;"">LITTLE</div><img id = ""stim"" ><div class = red_square id = ""bottomsquare"" ></div>",null,practice2,word_square,LITTLE,prac_response,0,Bottom,none,true,,,,,,,
html-keyboard-response,78,119162,null,"<div style=""font-size:42px;"">LITTLE</div>",null,,word,LITTLE,,,,,,,,,,,,
html-keyboard-response,79,120663,null,"",null,,word,LITTLE,,,,,,,,,,,,
html-keyboard-response,80,120865,null,"<div style=""font-size:42px;"">TIRED</div><img id = ""stim"" ><div class = red_square id = ""topsquare"" ></div>",null,practice2,word_square,,prac_response,0,Top,none,true,,,,,,,
html-keyboard-response,81,121170,null,"<div style=""font-size:42px;"">TIRED</div>",null,,word,TIRED,,,,,,,,,,,,
html-keyboard-response,82,122674,null,"",null,,word,TIRED,,,,,,,,,,,,
html-keyboard-response,83,122877,null,"<div style=""font-size:42px;"">ENTERTAINING</div><img id = ""stim"" ><div class = red_square id = ""bottomsquare"" ></div>",null,practice2,word_square,ENTERTAINING,prac_response,0,Bottom,none,true,,,,,,,
html-keyboard-response,84,123178,null,"<div style=""font-size:42px;"">ENTERTAINING</div>",null,,word,ENTERTAINING,,,,,,,,,,,,
html-keyboard-response,85,124681,null,"",null,,word,ENTERTAINING,,,,,,,,,,,,
html-keyboard-response,86,124882,null,"<div style=""font-size:42px;"">GRATEFUL</div><img id = ""stim"" ><div class = green_square id = ""bottomsquare"" ></div>",null,practice2,word_square,,prac_response,1,Bottom,32,true,,,,,,,
html-keyboard-response,87,125189,127.7999999821186,"<div style=""font-size:42px;"">GRATEFUL</div>",32,,word,GRATEFUL,,,,,,,,,,,,
html-keyboard-response,88,126692,null,"",null,,word,GRATEFUL,,,,,,,,,,,,
html-keyboard-response,89,126894,null,"<div style=""font-size:42px;"">LOUD</div><img id = ""stim"" ><div class = red_square id = ""topsquare"" ></div>",null,practice2,word_square,,prac_response,0,Top,none,true,,,,,,,
html-keyboard-response,90,127196,null,"<div style=""font-size:42px;"">LOUD</div>",null,,word,LOUD,,,,,,,,,,,,
html-keyboard-response,91,128698,null,"",null,,word,LOUD,,,,,,,,,,,,
html-keyboard-response,92,128900,null,"<div style=""font-size:42px;"">SMART</div><img id = ""stim"" ><div class = green_square id = ""topsquare"" ></div>",null,practice2,word_square,,prac_response,1,Top,32,true,,,,,,,
html-keyboard-response,93,129202,181.5,"<div style=""font-size:42px;"">SMART</div>",32,,word,SMART,,,,,,,,,,,,
html-keyboard-response,94,130705,null,"",null,,word,SMART,,,,,,,,,,,,
html-keyboard-response,95,130907,null,"<div style=""font-size:42px;"">SMOOTH</div><img id = ""stim"" ><div class = green_square id = ""bottomsquare"" ></div>",null,practice2,word_square,,prac_response,1,Bottom,32,true,,,,,,,
html-keyboard-response,96,131209,135.09999999403954,"<div style=""font-size:42px;"">SMOOTH</div>",32,,word,SMOOTH,,,,,,,,,,,,
html-keyboard-response,97,132712,null,"",null,,word,SMOOTH,,,,,,,,,,,,
html-keyboard-response,98,132914,null,"<div style=""font-size:42px;"">DISHONEST</div><img id = ""stim"" ><div class = red_square id = ""bottomsquare"" ></div>",null,practice2,word_square,DISHONEST,prac_response,0,Bottom,none,true,,,,,,,
html-keyboard-response,99,133217,null,"<div style=""font-size:42px;"">DISHONEST</div>",null,,word,DISHONEST,,,,,,,,,,,,
html-keyboard-response,100,134718,null,"",null,,word,DISHONEST,,,,,,,,,,,,
html-keyboard-response,101,134922,null,"<div style=""font-size:42px;"">WEALTHY</div><img id = ""stim"" ><div class = green_square id = ""topsquare"" ></div>",null,practice2,word_square,,prac_response,1,Top,32,true,,,,,,,
html-keyboard-response,102,135224,127.60000002384186,"<div style=""font-size:42px;"">WEALTHY</div>",32,,word,WEALTHY,,,,,,,,,,,,
html-keyboard-response,103,136726,null,"",null,,word,WEALTHY,,,,,,,,,,,,
html-keyboard-response,104,136929,null,"<div style=""font-size:42px;"">BEAUTIFUL</div><img id = ""stim"" ><div class = red_square id = ""topsquare"" ></div>",null,practice2,word_square,,prac_response,0,Top,none,false,,,,,,,
html-keyboard-response,105,137233,null,"<div style=""font-size:42px;"">BEAUTIFUL</div>",null,,word,BEAUTIFUL,,,,,,,,,,,,
html-keyboard-response,106,138735,null,"",null,,word,BEAUTIFUL,,,,,,,,,,,,
html-keyboard-response,107,143131,4392.5,"<p> Good job! You responded correctly to 100% of the trials. </p>
                    <p>Be sure to only press the spacebar if you see a GREEN square, and please keep your accuracy above 80%.</p>
                    <p>Press any key to begin the math and recall sections. Thank you! </p>",32,,,,,,,,,,,,,,,
call-function,108,143133,,"",,,,,,,,,,,,,,,,
html-keyboard-response,109,143236,null,"",null,,,,,,,,,,,,,,,
math-period,110,146981,6900.9000000059605,"",,,,,,,,,,,5,,,,,
html-keyboard-response,111,147085,null,"",null,,,,,,,,,,,,,,,
math-period,112,150515,6760.499999970198,"",,,,,,,,,,,2,,,,,
html-keyboard-response,113,150617,null,"",null,,,,,,,,,,,,,,,
math-period,114,152300,3024.099999964237,"",,,,,,,,,,,1,,,,,
html-keyboard-response,115,152404,null,"",null,,,,,,,,,,,,,,,
math-period,116,154275,3550.800000011921,"",,,,,,,,,,,5,,,,,
html-keyboard-response,117,154378,null,"",null,,,,,,,,,,,,,,,
math-period,118,156443,4016.1999999582767,"",,,,,,,,,,,2,,,,,
html-keyboard-response,119,156545,null,"",null,,,,,,,,,,,,,,,
math-period,120,159595,6064.700000017881,"",,,,,,,,,,,0,,,,,
html-keyboard-response,121,159698,null,"",null,,,,,,,,,,,,,,,
math-period,122,161555,3624.800000011921,"",,,,,,,,,,,5,,,,,
html-keyboard-response,123,161659,null,"",null,,,,,,,,,,,,,,,
math-period,124,163227,2810,"",,,,,,,,,,,2,,,,,
html-keyboard-response,125,163329,null,"",null,,,,,,,,,,,,,,,
math-period,126,165069,3384.7000000178814,"",,,,,,,,,,,5,,,,,
html-keyboard-response,127,165171,null,"",null,,,,,,,,,,,,,,,
math-period,128,167135,1944.800000011921,"",,,,,,,,,,,0,,,,,
html-keyboard-response,129,168139,null,"Recall Period!",null,,,,,,,,,,,,,,,
call-function,130,168141,,"",,,,,,,,,,,,,,,,
html-keyboard-response,131,168259,null,"",null,,,,,,,,,,,,,,,
recall-period,132,172613,22675.5,"",,,,,,,,,,,happy,,,,,
html-keyboard-response,133,172715,null,"",null,,,,,,,,,,,,,,,
recall-period,134,173941,3344.9000000059605,"",,,,,,,,,,,cold,,,,,
html-keyboard-response,135,174043,null,"",null,,,,,,,,,,,,,,,
recall-period,136,175405,5288.699999958277,"",,,,,,,,,,,smooth,,,,,
html-keyboard-response,137,175508,null,"",null,,,,,,,,,,,,,,,
recall-period,138,178013,14451.700000166893,"",,,,,,,,,,,grateful,,,,,
html-keyboard-response,139,178115,null,"",null,,,,,,,,,,,,,,,
recall-period,140,180261,15532.399999827147,"",,,,,,,,,,,entertaining,,,,,
html-keyboard-response,141,180364,null,"",null,,,,,,,,,,,,,,,
recall-period,142,184453,22410.000000029802,"",,,,,,,,,,,tired,,,,,
html-keyboard-response,143,184556,null,"",null,,,,,,,,,,,,,,,
recall-period,144,243144,null,"",,,,,,,,,,,,,,,,
html-keyboard-response,145,243647,null,"Time's Up!",null,,,,,,,,,,,,,,,
html-keyboard-response,146,246055,2406.9000000059605,"<p>We will now begin the experiment!<p><p>Please try to remember all words from each list.<p><p>Press the spacebar whenever you see a GREEN square.<p><p><p><p>Press the spacebar to begin.</p>",32,,,,,,,,,,,,,,,
html-keyboard-response,147,248673,2115.5,"<div style=""font-size:48px;"">Press any key to begin list 1 of 16 </div>",32,,,,,,,,,,,,,,,
html-keyboard-response,148,251177,null,"<div style=""font-size:60px;"">+</div>",null,,,,,,,,,,,,,,,
html-keyboard-response,149,251381,null,"<div style=""font-size:42px;"">PIRATE</div><img id = ""stim"" ><div class = green_square id = topsquare></div>",null,encoding,word_square,,,1,topsquare,32,true,,,PIRATE,0,,,
html-keyboard-response,150,251683,158.80000001192093,"<div style=""font-size:42px;"">PIRATE</div>",32,,word,PIRATE,,,,,,,,,,,,
html-keyboard-response,151,253186,null,"",null,,word,PIRATE,,,,,,,,,,,,
html-keyboard-response,152,253390,null,"<div style=""font-size:42px;"">SHELTER</div><img id = ""stim"" ><div class = green_square id = bottomsquare></div>",null,encoding,word_square,,,1,bottomsquare,32,true,,,SHELTER,0,,,
html-keyboard-response,153,253693,190.89999997615814,"<div style=""font-size:42px;"">SHELTER</div>",32,,word,SHELTER,,,,,,,,,,,,
html-keyboard-response,154,255207,null,"",null,,word,SHELTER,,,,,,,,,,,,
html-keyboard-response,155,255410,null,"<div style=""font-size:42px;"">WOLF</div><img id = ""stim"" ><div class = red_square id = bottomsquare></div>",null,encoding,word_square,,,0,bottomsquare,none,true,,,WOLF,0,,,
html-keyboard-response,156,255712,null,"<div style=""font-size:42px;"">WOLF</div>",null,,word,WOLF,,,,,,,,,,,,
html-keyboard-response,157,257215,null,"",null,,word,WOLF,,,,,,,,,,,,
html-keyboard-response,158,257419,null,"<div style=""font-size:42px;"">CLOUD</div><img id = ""stim"" ><div class = green_square id = topsquare></div>",null,encoding,word_square,,,1,topsquare,32,true,,,CLOUD,0,,,
html-keyboard-response,159,257722,null,"<div style=""font-size:42px;"">CLOUD</div>",null,,word,CLOUD,,,,,,,,,,,,
html-keyboard-response,160,259226,3.9000000059604645,"",32,,word,CLOUD,,,,,,,,,,,,
html-keyboard-response,161,259431,null,"<div style=""font-size:42px;"">COMET</div><img id = ""stim"" ><div class = red_square id = topsquare></div>",null,encoding,word_square,,,0,topsquare,none,true,,,COMET,0,,,
html-keyboard-response,162,259734,null,"<div style=""font-size:42px;"">COMET</div>",null,,word,COMET,,,,,,,,,,,,
html-keyboard-response,163,261243,null,"",null,,word,COMET,,,,,,,,,,,,
html-keyboard-response,164,261445,null,"<div style=""font-size:42px;"">JAR</div><img id = ""stim"" ><div class = red_square id = bottomsquare></div>",null,encoding,word_square,,,0,bottomsquare,none,true,,,JAR,0,,,
html-keyboard-response,165,261748,null,"<div style=""font-size:42px;"">JAR</div>",null,,word,JAR,,,,,,,,,,,,
html-keyboard-response,166,263251,null,"",null,,word,JAR,,,,,,,,,,,,
html-keyboard-response,167,263454,null,"<div style=""font-size:42px;"">BEAVER</div><img id = ""stim"" ><div class = green_square id = bottomsquare></div>",null,encoding,word_square,,,1,bottomsquare,32,true,,,BEAVER,0,,,
html-keyboard-response,168,263756,127.59999999403954,"<div style=""font-size:42px;"">BEAVER</div>",32,,word,BEAVER,,,,,,,,,,,,
html-keyboard-response,169,265269,null,"",null,,word,BEAVER,,,,,,,,,,,,
html-keyboard-response,170,265472,null,"<div style=""font-size:42px;"">WASHER</div><img id = ""stim"" ><div class = red_square id = topsquare></div>",null,encoding,word_square,,,0,topsquare,none,true,,,WASHER,0,,,
html-keyboard-response,171,265776,null,"<div style=""font-size:42px;"">WASHER</div>",null,,word,WASHER,,,,,,,,,,,,
html-keyboard-response,172,267280,null,"",null,,word,WASHER,,,,,,,,,,,,
html-keyboard-response,173,267518,null,"<div style=""font-size:42px;"">SWAMP</div><img id = ""stim"" ><div class = red_square id = bottomsquare></div>",null,encoding,word_square,,,0,bottomsquare,none,true,,,SWAMP,0,,,
html-keyboard-response,174,267821,null,"<div style=""font-size:42px;"">SWAMP</div>",null,,word,SWAMP,,,,,,,,,,,,
html-keyboard-response,175,269324,null,"",null,,word,SWAMP,,,,,,,,,,,,
html-keyboard-response,176,269526,null,"<div style=""font-size:42px;"">COOKBOOK</div><img id = ""stim"" ><div class = green_square id = topsquare></div>",null,encoding,word_square,,,1,topsquare,32,true,,,COOKBOOK,0,,,
html-keyboard-response,177,269828,152.90000000596046,"<div style=""font-size:42px;"">COOKBOOK</div>",32,,word,COOKBOOK,,,,,,,,,,,,
html-keyboard-response,178,271332,null,"",null,,word,COOKBOOK,,,,,,,,,,,,
html-keyboard-response,179,271536,null,"<div style=""font-size:42px;"">TURTLE</div><img id = ""stim"" ><div class = green_square id = bottomsquare></div>",null,encoding,word_square,,,1,bottomsquare,32,true,,,TURTLE,0,,,
html-keyboard-response,180,271840,190.7000000178814,"<div style=""font-size:42px;"">TURTLE</div>",32,,word,TURTLE,,,,,,,,,,,,
html-keyboard-response,181,273351,null,"",null,,word,TURTLE,,,,,,,,,,,,
html-keyboard-response,182,273555,null,"<div style=""font-size:42px;"">SLUG</div><img id = ""stim"" ><div class = green_square id = topsquare></div>",null,encoding,word_square,,,1,topsquare,32,true,,,SLUG,0,,,
html-keyboard-response,183,273860,122,"<div style=""font-size:42px;"">SLUG</div>",32,,word,SLUG,,,,,,,,,,,,
html-keyboard-response,184,275365,null,"",null,,word,SLUG,,,,,,,,,,,,
html-keyboard-response,185,275568,null,"<div style=""font-size:42px;"">CURTAIN</div><img id = ""stim"" ><div class = red_square id = topsquare></div>",null,encoding,word_square,,,0,topsquare,none,true,,,CURTAIN,0,,,
html-keyboard-response,186,275873,null,"<div style=""font-size:42px;"">CURTAIN</div>",null,,word,CURTAIN,,,,,,,,,,,,
html-keyboard-response,187,277378,null,"",null,,word,CURTAIN,,,,,,,,,,,,
html-keyboard-response,188,277581,null,"<div style=""font-size:42px;"">IDOL</div><img id = ""stim"" ><div class = red_square id = bottomsquare></div>",null,encoding,word_square,,,0,bottomsquare,none,true,,,IDOL,0,,,
html-keyboard-response,189,277885,null,"<div style=""font-size:42px;"">IDOL</div>",null,,word,IDOL,,,,,,,,,,,,
html-keyboard-response,190,279389,null,"",null,,word,IDOL,,,,,,,,,,,,
html-keyboard-response,191,279591,null,"<div style=""font-size:42px;"">HANDCUFFS</div><img id = ""stim"" ><div class = green_square id = bottomsquare></div>",null,encoding,word_square,,,1,bottomsquare,32,true,,,HANDCUFFS,0,,,
html-keyboard-response,192,279895,135.60000002384186,"<div style=""font-size:42px;"">HANDCUFFS</div>",32,,word,HANDCUFFS,,,,,,,,,,,,
html-keyboard-response,193,281398,null,"",null,,word,HANDCUFFS,,,,,,,,,,,,
html-keyboard-response,194,281601,null,"<div style=""font-size:42px;"">ZIPPER</div><img id = ""stim"" ><div class = red_square id = topsquare></div>",null,encoding,word_square,,,0,topsquare,none,true,,,ZIPPER,0,,,
html-keyboard-response,195,281906,null,"<div style=""font-size:42px;"">ZIPPER</div>",null,,word,ZIPPER,,,,,,,,,,,,
html-keyboard-response,196,283412,null,"",null,,word,ZIPPER,,,,,,,,,,,,
call-function,197,283414,,"",,,,,,,,,,,,,,,,
html-keyboard-response,198,283515,null,"",null,,,,,,,,,,,,,,,
math-period,199,285665,4099.700000017881,"",,,,,,,,,,,5,,,,,
html-keyboard-response,200,285767,null,"",null,,,,,,,,,,,,,,,
math-period,201,287081,2528.7999999523163,"",,,,,,,,,,,5,,,,,
html-keyboard-response,202,287184,null,"",null,,,,,,,,,,,,,,,
math-period,203,288417,2382.4000000059605,"",,,,,,,,,,,6,,,,,
html-keyboard-response,204,288519,null,"",null,,,,,,,,,,,,,,,
math-period,205,291265,5400.9000000059605,"",,,,,,,,,,,3,,,,,
html-keyboard-response,206,291367,null,"",null,,,,,,,,,,,,,,,
math-period,207,292849,2888.600000023842,"",,,,,,,,,,,5,,,,,
html-keyboard-response,208,292952,null,"",null,,,,,,,,,,,,,,,
math-period,209,294521,2845.9000000059605,"",,,,,,,,,,,3,,,,,
html-keyboard-response,210,294625,null,"",null,,,,,,,,,,,,,,,
math-period,211,296121,2874.100000023842,"",,,,,,,,,,,1,,,,,
html-keyboard-response,212,296224,null,"",null,,,,,,,,,,,,,,,
math-period,213,297393,2261.9000000059605,"",,,,,,,,,,,5,,,,,
html-keyboard-response,214,297495,null,"",null,,,,,,,,,,,,,,,
math-period,215,299009,2808.899999976158,"",,,,,,,,,,,3,,,,,
html-keyboard-response,216,299112,null,"",null,,,,,,,,,,,,,,,
math-period,217,300560,2707.699999988079,"",,,,,,,,,,,1,,,,,
html-keyboard-response,218,300664,null,"",null,,,,,,,,,,,,,,,
math-period,219,302209,2961.699999988079,"",,,,,,,,,,,1,,,,,
html-keyboard-response,220,302311,null,"",null,,,,,,,,,,,,,,,
math-period,221,304567,4182.799999982119,"",,,,,,,,,,,2,,,,,
html-keyboard-response,222,304670,null,"",null,,,,,,,,,,,,,,,
math-period,223,306913,4170.4000000059605,"",,,,,,,,,,,4,,,,,
html-keyboard-response,224,307014,null,"",null,,,,,,,,,,,,,,,
math-period,225,307418,null,"",,,,,,,,,,,,,,,,
html-keyboard-response,226,308421,null,"Recall Period!",null,,,,,,,,,,,,,,,
call-function,227,308423,,"",,,,,,,,,,,,,,,,
html-keyboard-response,228,308526,null,"",null,,,,,,,,,,,,,,,
recall-period,229,311128,12763.499999910593,"",,,,,,,,,,,pirate,,,,,
html-keyboard-response,230,311236,null,"",null,,,,,,,,,,,,,,,
recall-period,231,312472,5511.099999904633,"",,,,,,,,,,,shelter,,,,,
html-keyboard-response,232,312575,null,"",null,,,,,,,,,,,,,,,
recall-period,233,313897,5698.9000000059605,"",,,,,,,,,,,zipper,,,,,
html-keyboard-response,234,313999,null,"",null,,,,,,,,,,,,,,,
recall-period,235,315545,6530.799999952316,"",,,,,,,,,,,cookbook,,,,,
html-keyboard-response,236,315646,null,"",null,,,,,,,,,,,,,,,
recall-period,237,318041,12140.300000101328,"",,,,,,,,,,,handcuffs,,,,,
html-keyboard-response,238,318144,null,"",null,,,,,,,,,,,,,,,
recall-period,239,320349,7824.300000041723,"",,,,,,,,,,,turtle,,,,,
html-keyboard-response,240,320452,null,"",null,,,,,,,,,,,,,,,
recall-period,241,383427,null,"",,,,,,,,,,,,,,,,
html-keyboard-response,242,383932,null,"Time's Up!",null,,,,,,,,,,,,,,,
html-keyboard-response,243,386563,2627.0999999940395,"<p> Good job! You have responded correctly to 100% of the trials. </p>
                      <p>Be sure to only press the spacebar if you see a GREEN square, and please keep your accuracy above 80%.</p>
                      <p> Press any key to continue the experiment. </p>",32,,,,,,,,,,,,,,,
html-keyboard-response,244,387714,1150.3999999761581,"<div style=""font-size:48px;"">Press any key to begin list 2 of 16 </div>",32,,,,,,,,,,,,,,,
html-keyboard-response,245,390217,null,"<div style=""font-size:60px;"">+</div>",null,,,,,,,,,,,,,,,
html-keyboard-response,246,390420,null,"<div style=""font-size:42px;"">SALMON</div><img id = ""stim"" ><div class = red_square id = topsquare></div>",null,encoding,word_square,,,0,topsquare,none,true,,,SALMON,1,,,
html-keyboard-response,247,390722,null,"<div style=""font-size:42px;"">SALMON</div>",null,,word,SALMON,,,,,,,,,,,,
html-keyboard-response,248,392226,null,"",null,,word,SALMON,,,,,,,,,,,,
html-keyboard-response,249,392432,null,"<div style=""font-size:42px;"">TAXI</div><img id = ""stim"" ><div class = green_square id = bottomsquare></div>",null,encoding,word_square,,,1,bottomsquare,32,true,,,TAXI,1,,,
html-keyboard-response,250,392735,162.09999999403954,"<div style=""font-size:42px;"">TAXI</div>",32,,word,TAXI,,,,,,,,,,,,
html-keyboard-response,251,394238,null,"",null,,word,TAXI,,,,,,,,,,,,
html-keyboard-response,252,394442,null,"<div style=""font-size:42px;"">RUST</div><img id = ""stim"" ><div class = red_square id = bottomsquare></div>",null,encoding,word_square,,,0,bottomsquare,none,true,,,RUST,1,,,
html-keyboard-response,253,394745,null,"<div style=""font-size:42px;"">RUST</div>",null,,word,RUST,,,,,,,,,,,,
html-keyboard-response,254,396249,null,"",null,,word,RUST,,,,,,,,,,,,
html-keyboard-response,255,396453,null,"<div style=""font-size:42px;"">BRICK</div><img id = ""stim"" ><div class = red_square id = topsquare></div>",null,encoding,word_square,,,0,topsquare,none,true,,,BRICK,1,,,
html-keyboard-response,256,396755,null,"<div style=""font-size:42px;"">BRICK</div>",null,,word,BRICK,,,,,,,,,,,,
html-keyboard-response,257,398257,null,"",null,,word,BRICK,,,,,,,,,,,,
html-keyboard-response,258,398481,null,"<div style=""font-size:42px;"">CORAL</div><img id = ""stim"" ><div class = green_square id = topsquare></div>",null,encoding,word_square,,,1,topsquare,32,true,,,CORAL,1,,,
html-keyboard-response,259,398784,111.59999999403954,"<div style=""font-size:42px;"">CORAL</div>",32,,word,CORAL,,,,,,,,,,,,
html-keyboard-response,260,400288,null,"",null,,word,CORAL,,,,,,,,,,,,
html-keyboard-response,261,400491,null,"<div style=""font-size:42px;"">ATTIRE</div><img id = ""stim"" ><div class = green_square id = bottomsquare></div>",null,encoding,word_square,,,1,bottomsquare,32,true,,,ATTIRE,1,,,
html-keyboard-response,262,400792,231.90000000596046,"<div style=""font-size:42px;"">ATTIRE</div>",32,,word,ATTIRE,,,,,,,,,,,,
html-keyboard-response,263,402295,null,"",null,,word,ATTIRE,,,,,,,,,,,,
html-keyboard-response,264,402497,null,"<div style=""font-size:42px;"">CRACKER</div><img id = ""stim"" ><div class = green_square id = topsquare></div>",null,encoding,word_square,,,1,topsquare,32,true,,,CRACKER,1,,,
html-keyboard-response,265,402799,184.5,"<div style=""font-size:42px;"">CRACKER</div>",32,,word,CRACKER,,,,,,,,,,,,
html-keyboard-response,266,404303,null,"",null,,word,CRACKER,,,,,,,,,,,,
html-keyboard-response,267,404511,null,"<div style=""font-size:42px;"">LETTER</div><img id = ""stim"" ><div class = red_square id = bottomsquare></div>",null,encoding,word_square,,,0,bottomsquare,none,true,,,LETTER,1,,,
html-keyboard-response,268,404813,null,"<div style=""font-size:42px;"">LETTER</div>",null,,word,LETTER,,,,,,,,,,,,
html-keyboard-response,269,406316,null,"",null,,word,LETTER,,,,,,,,,,,,
html-keyboard-response,270,406519,null,"<div style=""font-size:42px;"">BOYFRIEND</div><img id = ""stim"" ><div class = red_square id = topsquare></div>",null,encoding,word_square,,,0,topsquare,none,true,,,BOYFRIEND,1,,,
html-keyboard-response,271,406824,null,"<div style=""font-size:42px;"">BOYFRIEND</div>",null,,word,BOYFRIEND,,,,,,,,,,,,
html-keyboard-response,272,408334,null,"",null,,word,BOYFRIEND,,,,,,,,,,,,
html-keyboard-response,273,408538,null,"<div style=""font-size:42px;"">FLUTE</div><img id = ""stim"" ><div class = green_square id = bottomsquare></div>",null,encoding,word_square,,,1,bottomsquare,32,true,,,FLUTE,1,,,
html-keyboard-response,274,408842,169.09999999403954,"<div style=""font-size:42px;"">FLUTE</div>",32,,word,FLUTE,,,,,,,,,,,,
html-keyboard-response,275,410344,null,"",null,,word,FLUTE,,,,,,,,,,,,
html-keyboard-response,276,410546,null,"<div style=""font-size:42px;"">BANJO</div><img id = ""stim"" ><div class = red_square id = bottomsquare></div>",null,encoding,word_square,,,0,bottomsquare,none,true,,,BANJO,1,,,
html-keyboard-response,277,410849,null,"<div style=""font-size:42px;"">BANJO</div>",null,,word,BANJO,,,,,,,,,,,,
html-keyboard-response,278,412354,null,"",null,,word,BANJO,,,,,,,,,,,,
html-keyboard-response,279,412557,null,"<div style=""font-size:42px;"">RIVER</div><img id = ""stim"" ><div class = red_square id = topsquare></div>",null,encoding,word_square,,,0,topsquare,none,true,,,RIVER,1,,,
html-keyboard-response,280,412860,null,"<div style=""font-size:42px;"">RIVER</div>",null,,word,RIVER,,,,,,,,,,,,
html-keyboard-response,281,414363,null,"",null,,word,RIVER,,,,,,,,,,,,
html-keyboard-response,282,414565,null,"<div style=""font-size:42px;"">FOSSIL</div><img id = ""stim"" ><div class = green_square id = topsquare></div>",null,encoding,word_square,,,1,topsquare,32,true,,,FOSSIL,1,,,
html-keyboard-response,283,414869,149.59999999403954,"<div style=""font-size:42px;"">FOSSIL</div>",32,,word,FOSSIL,,,,,,,,,,,,
html-keyboard-response,284,416371,null,"",null,,word,FOSSIL,,,,,,,,,,,,
html-keyboard-response,285,416575,null,"<div style=""font-size:42px;"">FRAGRANCE</div><img id = ""stim"" ><div class = red_square id = bottomsquare></div>",null,encoding,word_square,,,0,bottomsquare,none,true,,,FRAGRANCE,1,,,
html-keyboard-response,286,416878,null,"<div style=""font-size:42px;"">FRAGRANCE</div>",null,,word,FRAGRANCE,,,,,,,,,,,,
html-keyboard-response,287,418380,null,"",null,,word,FRAGRANCE,,,,,,,,,,,,
html-keyboard-response,288,418584,null,"<div style=""font-size:42px;"">CABIN</div><img id = ""stim"" ><div class = green_square id = bottomsquare></div>",null,encoding,word_square,,,1,bottomsquare,32,true,,,CABIN,1,,,
html-keyboard-response,289,418887,245.5,"<div style=""font-size:42px;"">CABIN</div>",32,,word,CABIN,,,,,,,,,,,,
html-keyboard-response,290,420390,null,"",null,,word,CABIN,,,,,,,,,,,,
html-keyboard-response,291,420591,null,"<div style=""font-size:42px;"">BOXER</div><img id = ""stim"" ><div class = green_square id = topsquare></div>",null,encoding,word_square,,,1,topsquare,32,true,,,BOXER,1,,,
html-keyboard-response,292,420896,210.59999999403954,"<div style=""font-size:42px;"">BOXER</div>",32,,word,BOXER,,,,,,,,,,,,
html-keyboard-response,293,422399,null,"",null,,word,BOXER,,,,,,,,,,,,
call-function,294,422400,,"",,,,,,,,,,,,,,,,
html-keyboard-response,295,422503,null,"",null,,,,,,,,,,,,,,,
math-period,296,424798,4144.600000023842,"",,,,,,,,,,,3,,,,,
html-keyboard-response,297,424902,null,"",null,,,,,,,,,,,,,,,
math-period,298,427534,5133.699999988079,"",,,,,,,,,,,3,,,,,
html-keyboard-response,299,427638,null,"",null,,,,,,,,,,,,,,,
math-period,300,429556,3627.300000011921,"",,,,,,,,,,,4,,,,,
html-keyboard-response,301,429658,null,"",null,,,,,,,,,,,,,,,
math-period,302,431228,2777.7999999821186,"",,,,,,,,,,,2,,,,,
html-keyboard-response,303,431331,null,"",null,,,,,,,,,,,,,,,
math-period,304,432942,3058.800000011921,"",,,,,,,,,,,1,,,,,
html-keyboard-response,305,433046,null,"",null,,,,,,,,,,,,,,,
math-period,306,434597,2930.699999988079,"",,,,,,,,,,,2,,,,,
html-keyboard-response,307,434699,null,"",null,,,,,,,,,,,,,,,
math-period,308,436149,2823.800000011921,"",,,,,,,,,,,6,,,,,
html-keyboard-response,309,436252,null,"",null,,,,,,,,,,,,,,,
math-period,310,438325,3925.8000000417233,"",,,,,,,,,,,2,,,,,
html-keyboard-response,311,438428,null,"",null,,,,,,,,,,,,,,,
math-period,312,439749,2549.300000011921,"",,,,,,,,,,,1,,,,,
html-keyboard-response,313,439851,null,"",null,,,,,,,,,,,,,,,
math-period,314,441485,3000.699999988079,"",,,,,,,,,,,3,,,,,
html-keyboard-response,315,441588,null,"",null,,,,,,,,,,,,,,,
math-period,316,443108,2941.599999964237,"",,,,,,,,,,,1,,,,,
html-keyboard-response,317,443210,null,"",null,,,,,,,,,,,,,,,
math-period,318,444565,2578.2000000178814,"",,,,,,,,,,,6,,,,,
html-keyboard-response,319,444667,null,"",null,,,,,,,,,,,,,,,
math-period,320,446401,1648,"",,,,,,,,,,,3,,,,,
html-keyboard-response,321,447404,null,"Recall Period!",null,,,,,,,,,,,,,,,
call-function,322,447405,,"",,,,,,,,,,,,,,,,
html-keyboard-response,323,447507,null,"",null,,,,,,,,,,,,,,,
recall-period,324,449478,8002.599999904633,"",,,,,,,,,,,salmon,,,,,
html-keyboard-response,325,449588,null,"",null,,,,,,,,,,,,,,,
recall-period,326,451180,5065.299999982119,"",,,,,,,,,,,taxi,,,,,
html-keyboard-response,327,451282,null,"",null,,,,,,,,,,,,,,,
recall-period,328,453524,9180.399999886751,"",,,,,,,,,,,banjo,,,,,
html-keyboard-response,329,453628,null,"",null,,,,,,,,,,,,,,,
recall-period,330,454844,3383.199999898672,"",,,,,,,,,,,flute,,,,,
html-keyboard-response,331,454946,null,"",null,,,,,,,,,,,,,,,
recall-period,332,457252,11744.200000017881,"",,,,,,,,,,,coral,,,,,
html-keyboard-response,333,457356,null,"",null,,,,,,,,,,,,,,,
recall-period,334,489511,307761.9999999702,"",,,,,,,,,,,fragrance,,,,,
html-keyboard-response,335,489614,null,"",null,,,,,,,,,,,,,,,
recall-period,336,522408,null,"",,,,,,,,,,,,,,,,
html-keyboard-response,337,522913,null,"Time's Up!",null,,,,,,,,,,,,,,,
html-keyboard-response,338,530177,7257.0999999940395,"<p> Good job! You have responded correctly to 100% of the trials. </p>
                      <p>Be sure to only press the spacebar if you see a GREEN square, and please keep your accuracy above 80%.</p>
                      <p> Press any key to continue the experiment. </p>",32,,,,,,,,,,,,,,,
html-keyboard-response,339,530931,750.1999999880791,"<div style=""font-size:48px;"">Press any key to begin list 3 of 16 </div>",32,,,,,,,,,,,,,,,
html-keyboard-response,340,533436,null,"<div style=""font-size:60px;"">+</div>",null,,,,,,,,,,,,,,,
html-keyboard-response,341,533652,null,"<div style=""font-size:42px;"">DAD</div><img id = ""stim"" ><div class = red_square id = bottomsquare></div>",null,encoding,word_square,,,0,bottomsquare,none,true,,,DAD,2,,,
html-keyboard-response,342,533956,null,"<div style=""font-size:42px;"">DAD</div>",null,,word,DAD,,,,,,,,,,,,
html-keyboard-response,343,535460,null,"",null,,word,DAD,,,,,,,,,,,,
html-keyboard-response,344,535664,null,"<div style=""font-size:42px;"">FLESH</div><img id = ""stim"" ><div class = red_square id = topsquare></div>",null,encoding,word_square,,,0,topsquare,none,true,,,FLESH,2,,,
html-keyboard-response,345,535967,null,"<div style=""font-size:42px;"">FLESH</div>",null,,word,FLESH,,,,,,,,,,,,
html-keyboard-response,346,537470,null,"",null,,word,FLESH,,,,,,,,,,,,
html-keyboard-response,347,537675,null,"<div style=""font-size:42px;"">LANDSCAPE</div><img id = ""stim"" ><div class = green_square id = topsquare></div>",null,encoding,word_square,,,1,topsquare,32,true,,,LANDSCAPE,2,,,
html-keyboard-response,348,537978,211.2999999821186,"<div style=""font-size:42px;"">LANDSCAPE</div>",32,,word,LANDSCAPE,,,,,,,,,,,,
html-keyboard-response,349,539480,null,"",null,,word,LANDSCAPE,,,,,,,,,,,,
html-keyboard-response,350,539714,null,"<div style=""font-size:42px;"">TOURIST</div><img id = ""stim"" ><div class = red_square id = bottomsquare></div>",null,encoding,word_square,,,0,bottomsquare,none,true,,,TOURIST,2,,,
html-keyboard-response,351,540017,null,"<div style=""font-size:42px;"">TOURIST</div>",null,,word,TOURIST,,,,,,,,,,,,
html-keyboard-response,352,541521,null,"",null,,word,TOURIST,,,,,,,,,,,,
html-keyboard-response,353,541725,null,"<div style=""font-size:42px;"">CHICKEN</div><img id = ""stim"" ><div class = green_square id = bottomsquare></div>",null,encoding,word_square,,,1,bottomsquare,32,true,,,CHICKEN,2,,,
html-keyboard-response,354,542028,234.5,"<div style=""font-size:42px;"">CHICKEN</div>",32,,word,CHICKEN,,,,,,,,,,,,
html-keyboard-response,355,543531,null,"",null,,word,CHICKEN,,,,,,,,,,,,
html-keyboard-response,356,543734,null,"<div style=""font-size:42px;"">COBWEB</div><img id = ""stim"" ><div class = green_square id = topsquare></div>",null,encoding,word_square,,,1,topsquare,32,true,,,COBWEB,2,,,
html-keyboard-response,357,544035,null,"<div style=""font-size:42px;"">COBWEB</div>",null,,word,COBWEB,,,,,,,,,,,,
html-keyboard-response,358,545540,3,"",32,,word,COBWEB,,,,,,,,,,,,
html-keyboard-response,359,545750,null,"<div style=""font-size:42px;"">KETCHUP</div><img id = ""stim"" ><div class = red_square id = topsquare></div>",null,encoding,word_square,,,0,topsquare,none,true,,,KETCHUP,2,,,
html-keyboard-response,360,546053,null,"<div style=""font-size:42px;"">KETCHUP</div>",null,,word,KETCHUP,,,,,,,,,,,,
html-keyboard-response,361,547555,null,"",null,,word,KETCHUP,,,,,,,,,,,,
html-keyboard-response,362,547759,null,"<div style=""font-size:42px;"">RELISH</div><img id = ""stim"" ><div class = green_square id = bottomsquare></div>",null,encoding,word_square,,,1,bottomsquare,32,true,,,RELISH,2,,,
html-keyboard-response,363,548062,207.2999999821186,"<div style=""font-size:42px;"">RELISH</div>",32,,word,RELISH,,,,,,,,,,,,
html-keyboard-response,364,549572,null,"",null,,word,RELISH,,,,,,,,,,,,
html-keyboard-response,365,549775,null,"<div style=""font-size:42px;"">CABBAGE</div><img id = ""stim"" ><div class = green_square id = topsquare></div>",null,encoding,word_square,,,1,topsquare,32,true,,,CABBAGE,2,,,
html-keyboard-response,366,550077,151.40000000596046,"<div style=""font-size:42px;"">CABBAGE</div>",32,,word,CABBAGE,,,,,,,,,,,,
html-keyboard-response,367,551580,null,"",null,,word,CABBAGE,,,,,,,,,,,,
html-keyboard-response,368,551782,null,"<div style=""font-size:42px;"">SCALLOP</div><img id = ""stim"" ><div class = red_square id = bottomsquare></div>",null,encoding,word_square,,,0,bottomsquare,none,true,,,SCALLOP,2,,,
html-keyboard-response,369,552085,null,"<div style=""font-size:42px;"">SCALLOP</div>",null,,word,SCALLOP,,,,,,,,,,,,
html-keyboard-response,370,553596,null,"",null,,word,SCALLOP,,,,,,,,,,,,
html-keyboard-response,371,553799,null,"<div style=""font-size:42px;"">SUITCASE</div><img id = ""stim"" ><div class = red_square id = topsquare></div>",null,encoding,word_square,,,0,topsquare,none,true,,,SUITCASE,2,,,
html-keyboard-response,372,554101,null,"<div style=""font-size:42px;"">SUITCASE</div>",null,,word,SUITCASE,,,,,,,,,,,,
html-keyboard-response,373,555604,null,"",null,,word,SUITCASE,,,,,,,,,,,,
html-keyboard-response,374,555808,null,"<div style=""font-size:42px;"">DASHBOARD</div><img id = ""stim"" ><div class = red_square id = bottomsquare></div>",null,encoding,word_square,,,0,bottomsquare,none,true,,,DASHBOARD,2,,,
html-keyboard-response,375,556110,null,"<div style=""font-size:42px;"">DASHBOARD</div>",null,,word,DASHBOARD,,,,,,,,,,,,
html-keyboard-response,376,557613,null,"",null,,word,DASHBOARD,,,,,,,,,,,,
html-keyboard-response,377,557818,null,"<div style=""font-size:42px;"">EYELASH</div><img id = ""stim"" ><div class = green_square id = bottomsquare></div>",null,encoding,word_square,,,1,bottomsquare,32,true,,,EYELASH,2,,,
html-keyboard-response,378,558122,183.19999998807907,"<div style=""font-size:42px;"">EYELASH</div>",32,,word,EYELASH,,,,,,,,,,,,
html-keyboard-response,379,559625,null,"",null,,word,EYELASH,,,,,,,,,,,,
html-keyboard-response,380,559827,null,"<div style=""font-size:42px;"">FRECKLE</div><img id = ""stim"" ><div class = green_square id = topsquare></div>",null,encoding,word_square,,,1,topsquare,32,true,,,FRECKLE,2,,,
html-keyboard-response,381,560130,172.7000000178814,"<div style=""font-size:42px;"">FRECKLE</div>",32,,word,FRECKLE,,,,,,,,,,,,
html-keyboard-response,382,561633,null,"",null,,word,FRECKLE,,,,,,,,,,,,
html-keyboard-response,383,561836,null,"<div style=""font-size:42px;"">INFANT</div><img id = ""stim"" ><div class = red_square id = topsquare></div>",null,encoding,word_square,,,0,topsquare,none,true,,,INFANT,2,,,
html-keyboard-response,384,562140,null,"<div style=""font-size:42px;"">INFANT</div>",null,,word,INFANT,,,,,,,,,,,,
html-keyboard-response,385,563644,null,"",null,,word,INFANT,,,,,,,,,,,,
html-keyboard-response,386,563846,null,"<div style=""font-size:42px;"">HAMPER</div><img id = ""stim"" ><div class = green_square id = bottomsquare></div>",null,encoding,word_square,,,1,bottomsquare,32,true,,,HAMPER,2,,,
html-keyboard-response,387,564148,201.69999998807907,"<div style=""font-size:42px;"">HAMPER</div>",32,,word,HAMPER,,,,,,,,,,,,
html-keyboard-response,388,565652,null,"",null,,word,HAMPER,,,,,,,,,,,,
call-function,389,565654,,"",,,,,,,,,,,,,,,,
html-keyboard-response,390,565757,null,"",null,,,,,,,,,,,,,,,
math-period,391,567752,3715.5999999940395,"",,,,,,,,,,,3,,,,,
html-keyboard-response,392,567856,null,"",null,,,,,,,,,,,,,,,
math-period,393,569352,2799.7000000178814,"",,,,,,,,,,,5,,,,,
html-keyboard-response,394,569456,null,"",null,,,,,,,,,,,,,,,
math-period,395,572016,4884.799999982119,"",,,,,,,,,,,3,,,,,
html-keyboard-response,396,572120,null,"",null,,,,,,,,,,,,,,,
math-period,397,573224,2074.7000000476837,"",,,,,,,,,,,3,,,,,
html-keyboard-response,398,573327,null,"",null,,,,,,,,,,,,,,,
math-period,399,574504,2262.7000000178814,"",,,,,,,,,,,6,,,,,
html-keyboard-response,400,574606,null,"",null,,,,,,,,,,,,,,,
math-period,401,576049,2569.4000000059605,"",,,,,,,,,,,4,,,,,
html-keyboard-response,402,576152,null,"",null,,,,,,,,,,,,,,,
math-period,403,577128,1764.300000011921,"",,,,,,,,,,,4,,,,,
html-keyboard-response,404,577232,null,"",null,,,,,,,,,,,,,,,
math-period,405,578408,2185.4999999701977,"",,,,,,,,,,,1,,,,,
html-keyboard-response,406,578511,null,"",null,,,,,,,,,,,,,,,
math-period,407,579920,2591.300000011921,"",,,,,,,,,,,2,,,,,
html-keyboard-response,408,580022,null,"",null,,,,,,,,,,,,,,,
math-period,409,581464,2643.699999988079,"",,,,,,,,,,,3,,,,,
html-keyboard-response,410,581566,null,"",null,,,,,,,,,,,,,,,
math-period,411,584192,7473.299999982119,"",,,,,,,,,,,1,,,,,
html-keyboard-response,412,584293,null,"",null,,,,,,,,,,,,,,,
math-period,413,585481,2251.400000035763,"",,,,,,,,,,,4,,,,,
html-keyboard-response,414,585585,null,"",null,,,,,,,,,,,,,,,
math-period,415,587288,3280.0999999940395,"",,,,,,,,,,,1,,,,,
html-keyboard-response,416,587390,null,"",null,,,,,,,,,,,,,,,
math-period,417,589472,3921.4000000059605,"",,,,,,,,,,,3,,,,,
html-keyboard-response,418,589574,null,"",null,,,,,,,,,,,,,,,
math-period,419,589655,null,"",,,,,,,,,,,,,,,,
html-keyboard-response,420,590662,null,"Recall Period!",null,,,,,,,,,,,,,,,
call-function,421,590676,,"",,,,,,,,,,,,,,,,
html-keyboard-response,422,590779,null,"",null,,,,,,,,,,,,,,,
recall-period,423,592307,4679.5,"",,,,,,,,,,,dad,,,,,
html-keyboard-response,424,592410,null,"",null,,,,,,,,,,,,,,,
recall-period,425,594410,6970.999999910593,"",,,,,,,,,,,flesh,,,,,
html-keyboard-response,426,594513,null,"",null,,,,,,,,,,,,,,,
recall-period,427,596627,10985.999999970198,"",,,,,,,,,,,hamper,,,,,
html-keyboard-response,428,596730,null,"",null,,,,,,,,,,,,,,,
recall-period,429,597708,3674.100000023842,"",,,,,,,,,,,infant,,,,,
html-keyboard-response,430,597810,null,"",null,,,,,,,,,,,,,,,
recall-period,431,599523,6070.199999958277,"",,,,,,,,,,,relish,,,,,
html-keyboard-response,432,599625,null,"",null,,,,,,,,,,,,,,,
recall-period,433,608138,52844.89999991655,"",,,,,,,,,,,cobweb,,,,,
html-keyboard-response,434,608243,null,"",null,,,,,,,,,,,,,,,
recall-period,435,612498,30317.000000029802,"",,,,,,,,,,,freckle,,,,,
html-keyboard-response,436,612602,null,"",null,,,,,,,,,,,,,,,
recall-period,437,628194,119628.9999999106,"",,,,,,,,,,,scallop,,,,,
html-keyboard-response,438,628296,null,"",null,,,,,,,,,,,,,,,
recall-period,439,634259,55127.000000178814,"",,,,,,,,,,,ketchup,,,,,
html-keyboard-response,440,634362,null,"",null,,,,,,,,,,,,,,,
recall-period,441,665666,null,"",,,,,,,,,,,,,,,,
html-keyboard-response,442,666169,null,"Time's Up!",null,,,,,,,,,,,,,,,
html-keyboard-response,443,668468,2295.9000000059605,"<p> Good job! You have responded correctly to 100% of the trials. </p>
                      <p>Be sure to only press the spacebar if you see a GREEN square, and please keep your accuracy above 80%.</p>
                      <p> Press any key to continue the experiment. </p>",32,,,,,,,,,,,,,,,
html-keyboard-response,444,669092,622.0999999940395,"<div style=""font-size:48px;"">Press any key to begin list 4 of 16 </div>",32,,,,,,,,,,,,,,,
html-keyboard-response,445,671595,null,"<div style=""font-size:60px;"">+</div>",null,,,,,,,,,,,,,,,
html-keyboard-response,446,671800,null,"<div style=""font-size:42px;"">FLIPPER</div><img id = ""stim"" ><div class = green_square id = bottomsquare></div>",null,encoding,word_square,,,1,bottomsquare,32,true,,,FLIPPER,3,,,
html-keyboard-response,447,672102,170,"<div style=""font-size:42px;"">FLIPPER</div>",32,,word,FLIPPER,,,,,,,,,,,,
html-keyboard-response,448,673607,null,"",null,,word,FLIPPER,,,,,,,,,,,,
html-keyboard-response,449,673812,null,"<div style=""font-size:42px;"">YARD</div><img id = ""stim"" ><div class = red_square id = topsquare></div>",null,encoding,word_square,,,0,topsquare,none,true,,,YARD,3,,,
html-keyboard-response,450,674116,null,"<div style=""font-size:42px;"">YARD</div>",null,,word,YARD,,,,,,,,,,,,
html-keyboard-response,451,675619,null,"",null,,word,YARD,,,,,,,,,,,,
html-keyboard-response,452,675821,null,"<div style=""font-size:42px;"">CLAMP</div><img id = ""stim"" ><div class = green_square id = topsquare></div>",null,encoding,word_square,,,1,topsquare,32,true,,,CLAMP,3,,,
html-keyboard-response,453,676124,157.19999998807907,"<div style=""font-size:42px;"">CLAMP</div>",32,,word,CLAMP,,,,,,,,,,,,
html-keyboard-response,454,677629,null,"",null,,word,CLAMP,,,,,,,,,,,,
html-keyboard-response,455,677834,null,"<div style=""font-size:42px;"">PEPPER</div><img id = ""stim"" ><div class = green_square id = bottomsquare></div>",null,encoding,word_square,,,1,bottomsquare,32,true,,,PEPPER,3,,,
html-keyboard-response,456,678138,119.30000001192093,"<div style=""font-size:42px;"">PEPPER</div>",32,,word,PEPPER,,,,,,,,,,,,
html-keyboard-response,457,679641,null,"",null,,word,PEPPER,,,,,,,,,,,,
html-keyboard-response,458,679843,null,"<div style=""font-size:42px;"">PARCEL</div><img id = ""stim"" ><div class = red_square id = bottomsquare></div>",null,encoding,word_square,,,0,bottomsquare,none,true,,,PARCEL,3,,,
html-keyboard-response,459,680146,null,"<div style=""font-size:42px;"">PARCEL</div>",null,,word,PARCEL,,,,,,,,,,,,
html-keyboard-response,460,681650,null,"",null,,word,PARCEL,,,,,,,,,,,,
html-keyboard-response,461,681853,null,"<div style=""font-size:42px;"">CLIFF</div><img id = ""stim"" ><div class = red_square id = topsquare></div>",null,encoding,word_square,,,0,topsquare,none,true,,,CLIFF,3,,,
html-keyboard-response,462,682155,null,"<div style=""font-size:42px;"">CLIFF</div>",null,,word,CLIFF,,,,,,,,,,,,
html-keyboard-response,463,683657,null,"",null,,word,CLIFF,,,,,,,,,,,,
html-keyboard-response,464,683860,null,"<div style=""font-size:42px;"">SKUNK</div><img id = ""stim"" ><div class = red_square id = bottomsquare></div>",null,encoding,word_square,,,0,bottomsquare,none,true,,,SKUNK,3,,,
html-keyboard-response,465,684163,null,"<div style=""font-size:42px;"">SKUNK</div>",null,,word,SKUNK,,,,,,,,,,,,
html-keyboard-response,466,685667,null,"",null,,word,SKUNK,,,,,,,,,,,,
html-keyboard-response,467,685869,null,"<div style=""font-size:42px;"">POSSUM</div><img id = ""stim"" ><div class = green_square id = topsquare></div>",null,encoding,word_square,,,1,topsquare,32,true,,,POSSUM,3,,,
html-keyboard-response,468,686171,141.2999999821186,"<div style=""font-size:42px;"">POSSUM</div>",32,,word,POSSUM,,,,,,,,,,,,
html-keyboard-response,469,687674,null,"",null,,word,POSSUM,,,,,,,,,,,,
html-keyboard-response,470,687877,null,"<div style=""font-size:42px;"">SUGAR</div><img id = ""stim"" ><div class = green_square id = bottomsquare></div>",null,encoding,word_square,,,1,bottomsquare,32,true,,,SUGAR,3,,,
html-keyboard-response,471,688179,133.09999999403954,"<div style=""font-size:42px;"">SUGAR</div>",32,,word,SUGAR,,,,,,,,,,,,
html-keyboard-response,472,689683,null,"",null,,word,SUGAR,,,,,,,,,,,,
html-keyboard-response,473,689892,null,"<div style=""font-size:42px;"">SKATE</div><img id = ""stim"" ><div class = red_square id = topsquare></div>",null,encoding,word_square,,,0,topsquare,none,true,,,SKATE,3,,,
html-keyboard-response,474,690195,null,"<div style=""font-size:42px;"">SKATE</div>",null,,word,SKATE,,,,,,,,,,,,
html-keyboard-response,475,691698,null,"",null,,word,SKATE,,,,,,,,,,,,
html-keyboard-response,476,691900,null,"<div style=""font-size:42px;"">TRUCK</div><img id = ""stim"" ><div class = green_square id = topsquare></div>",null,encoding,word_square,,,1,topsquare,32,true,,,TRUCK,3,,,
html-keyboard-response,477,692203,221.90000000596046,"<div style=""font-size:42px;"">TRUCK</div>",32,,word,TRUCK,,,,,,,,,,,,
html-keyboard-response,478,693715,null,"",null,,word,TRUCK,,,,,,,,,,,,
html-keyboard-response,479,693918,null,"<div style=""font-size:42px;"">HOOD</div><img id = ""stim"" ><div class = green_square id = bottomsquare></div>",null,encoding,word_square,,,1,bottomsquare,32,true,,,HOOD,3,,,
html-keyboard-response,480,694221,179.5,"<div style=""font-size:42px;"">HOOD</div>",32,,word,HOOD,,,,,,,,,,,,
html-keyboard-response,481,695748,null,"",null,,word,HOOD,,,,,,,,,,,,
html-keyboard-response,482,695952,null,"<div style=""font-size:42px;"">EUROPE</div><img id = ""stim"" ><div class = red_square id = bottomsquare></div>",null,encoding,word_square,,,0,bottomsquare,none,true,,,EUROPE,3,,,
html-keyboard-response,483,696255,null,"<div style=""font-size:42px;"">EUROPE</div>",null,,word,EUROPE,,,,,,,,,,,,
html-keyboard-response,484,697760,null,"",null,,word,EUROPE,,,,,,,,,,,,
html-keyboard-response,485,697962,null,"<div style=""font-size:42px;"">ASIA</div><img id = ""stim"" ><div class = green_square id = topsquare></div>",null,encoding,word_square,,,1,topsquare,32,true,,,ASIA,3,,,
html-keyboard-response,486,698265,216.60000002384186,"<div style=""font-size:42px;"">ASIA</div>",32,,word,ASIA,,,,,,,,,,,,
html-keyboard-response,487,699770,null,"",null,,word,ASIA,,,,,,,,,,,,
html-keyboard-response,488,699974,null,"<div style=""font-size:42px;"">BEAST</div><img id = ""stim"" ><div class = red_square id = topsquare></div>",null,encoding,word_square,,,0,topsquare,none,true,,,BEAST,3,,,
html-keyboard-response,489,700277,null,"<div style=""font-size:42px;"">BEAST</div>",null,,word,BEAST,,,,,,,,,,,,
html-keyboard-response,490,701781,null,"",null,,word,BEAST,,,,,,,,,,,,
html-keyboard-response,491,701984,null,"<div style=""font-size:42px;"">SHARK</div><img id = ""stim"" ><div class = red_square id = bottomsquare></div>",null,encoding,word_square,,,0,bottomsquare,none,true,,,SHARK,3,,,
html-keyboard-response,492,702288,null,"<div style=""font-size:42px;"">SHARK</div>",null,,word,SHARK,,,,,,,,,,,,
html-keyboard-response,493,703792,null,"",null,,word,SHARK,,,,,,,,,,,,
call-function,494,703796,,"",,,,,,,,,,,,,,,,
html-keyboard-response,495,703898,null,"",null,,,,,,,,,,,,,,,
math-period,496,706100,4119.0999999940395,"",,,,,,,,,,,6,,,,,
html-keyboard-response,497,706204,null,"",null,,,,,,,,,,,,,,,
math-period,498,707875,3195.7999999821186,"",,,,,,,,,,,4,,,,,
html-keyboard-response,499,707979,null,"",null,,,,,,,,,,,,,,,
math-period,500,709020,1902.4999999701977,"",,,,,,,,,,,2,,,,,
html-keyboard-response,501,709123,null,"",null,,,,,,,,,,,,,,,
math-period,502,710822,3324.9000000059605,"",,,,,,,,,,,5,,,,,
html-keyboard-response,503,710925,null,"",null,,,,,,,,,,,,,,,
math-period,504,712118,2302.4000000059605,"",,,,,,,,,,,6,,,,,
html-keyboard-response,505,712222,null,"",null,,,,,,,,,,,,,,,
math-period,506,714582,7564.500000029802,"",,,,,,,,,,,4,,,,,
html-keyboard-response,507,714687,null,"",null,,,,,,,,,,,,,,,
math-period,508,717102,4704.200000017881,"",,,,,,,,,,,1,,,,,
html-keyboard-response,509,717203,null,"",null,,,,,,,,,,,,,,,
math-period,510,718870,1665.800000011921,"",,,,,,,,,,,,,,,,
html-keyboard-response,511,718974,null,"",null,,,,,,,,,,,,,,,
math-period,512,720278,2486.899999976158,"",,,,,,,,,,,3,,,,,
html-keyboard-response,513,720381,null,"",null,,,,,,,,,,,,,,,
math-period,514,721630,2430.4999999701977,"",,,,,,,,,,,1,,,,,
html-keyboard-response,515,721734,null,"",null,,,,,,,,,,,,,,,
math-period,516,722990,2410.800000011921,"",,,,,,,,,,,4,,,,,
html-keyboard-response,517,723092,null,"",null,,,,,,,,,,,,,,,
math-period,518,724407,2576.199999988079,"",,,,,,,,,,,5,,,,,
html-keyboard-response,519,724508,null,"",null,,,,,,,,,,,,,,,
math-period,520,725639,2217.2000000178814,"",,,,,,,,,,,5,,,,,
html-keyboard-response,521,725742,null,"",null,,,,,,,,,,,,,,,
math-period,522,726653,1764.5000000298023,"",,,,,,,,,,,4,,,,,
html-keyboard-response,523,726757,null,"",null,,,,,,,,,,,,,,,
math-period,524,727606,1672.300000011921,"",,,,,,,,,,,5,,,,,
html-keyboard-response,525,727710,null,"",null,,,,,,,,,,,,,,,
math-period,526,727802,null,"",,,,,,,,,,,,,,,,
html-keyboard-response,527,728805,null,"Recall Period!",null,,,,,,,,,,,,,,,
call-function,528,728809,,"",,,,,,,,,,,,,,,,
html-keyboard-response,529,728915,null,"",null,,,,,,,,,,,,,,,
recall-period,530,731518,11822.600000053644,"",,,,,,,,,,,europe,,,,,
html-keyboard-response,531,731619,null,"",null,,,,,,,,,,,,,,,
recall-period,532,732950,3581.4999999701977,"",,,,,,,,,,,asis,,,,,
html-keyboard-response,533,733053,null,"",null,,,,,,,,,,,,,,,
recall-period,534,734870,8913.200000047684,"",,,,,,,,,,,beast,,,,,
html-keyboard-response,535,734972,null,"",null,,,,,,,,,,,,,,,
recall-period,536,735982,3610.199999988079,"",,,,,,,,,,,shark,,,,,
html-keyboard-response,537,736087,null,"",null,,,,,,,,,,,,,,,
recall-period,538,737518,7071.100000053644,"",,,,,,,,,,,flipper,,,,,
html-keyboard-response,539,737621,null,"",null,,,,,,,,,,,,,,,
recall-period,540,738750,4289.700000047684,"",,,,,,,,,,,parcel,,,,,
html-keyboard-response,541,738855,null,"",null,,,,,,,,,,,,,,,
recall-period,542,752942,80325.60000005364,"",,,,,,,,,,,truck,,,,,
html-keyboard-response,543,753045,null,"",null,,,,,,,,,,,,,,,
recall-period,544,753654,1827.6000000238419,"",,,,,,,,,,,hood,,,,,
html-keyboard-response,545,753757,null,"",null,,,,,,,,,,,,,,,
recall-period,546,803811,null,"",,,,,,,,,,,,,,,,
html-keyboard-response,547,804314,null,"Time's Up!",null,,,,,,,,,,,,,,,
html-keyboard-response,548,805544,1228.4000000059605,"<p> Good job! You have responded correctly to 100% of the trials. </p>
                      <p>Be sure to only press the spacebar if you see a GREEN square, and please keep your accuracy above 80%.</p>
                      <p> Press any key to continue the experiment. </p>",32,,,,,,,,,,,,,,,
html-keyboard-response,549,806319,773.8000000119209,"<div style=""font-size:48px;"">Press any key to begin list 5 of 16 </div>",32,,,,,,,,,,,,,,,
html-keyboard-response,550,808823,null,"<div style=""font-size:60px;"">+</div>",null,,,,,,,,,,,,,,,
html-keyboard-response,551,809026,null,"<div style=""font-size:42px;"">SOFTBALL</div><img id = ""stim"" ><div class = green_square id = topsquare></div>",null,encoding,word_square,,,1,topsquare,32,true,,,SOFTBALL,4,,,
html-keyboard-response,552,809328,211.69999998807907,"<div style=""font-size:42px;"">SOFTBALL</div>",32,,word,SOFTBALL,,,,,,,,,,,,
html-keyboard-response,553,810830,null,"",null,,word,SOFTBALL,,,,,,,,,,,,
html-keyboard-response,554,811036,null,"<div style=""font-size:42px;"">HEADBAND</div><img id = ""stim"" ><div class = red_square id = bottomsquare></div>",null,encoding,word_square,,,0,bottomsquare,none,true,,,HEADBAND,4,,,
html-keyboard-response,555,811338,null,"<div style=""font-size:42px;"">HEADBAND</div>",null,,word,HEADBAND,,,,,,,,,,,,
html-keyboard-response,556,812842,null,"",null,,word,HEADBAND,,,,,,,,,,,,
html-keyboard-response,557,813044,null,"<div style=""font-size:42px;"">KIDNEY</div><img id = ""stim"" ><div class = red_square id = topsquare></div>",null,encoding,word_square,,,0,topsquare,none,true,,,KIDNEY,4,,,
html-keyboard-response,558,813348,null,"<div style=""font-size:42px;"">KIDNEY</div>",null,,word,KIDNEY,,,,,,,,,,,,
html-keyboard-response,559,814852,null,"",null,,word,KIDNEY,,,,,,,,,,,,
html-keyboard-response,560,815055,null,"<div style=""font-size:42px;"">DUNGEON</div><img id = ""stim"" ><div class = green_square id = bottomsquare></div>",null,encoding,word_square,,,1,bottomsquare,32,true,,,DUNGEON,4,,,
html-keyboard-response,561,815357,186.69999998807907,"<div style=""font-size:42px;"">DUNGEON</div>",32,,word,DUNGEON,,,,,,,,,,,,
html-keyboard-response,562,816866,null,"",null,,word,DUNGEON,,,,,,,,,,,,
html-keyboard-response,563,817068,null,"<div style=""font-size:42px;"">SERPENT</div><img id = ""stim"" ><div class = green_square id = topsquare></div>",null,encoding,word_square,,,1,topsquare,32,true,,,SERPENT,4,,,
html-keyboard-response,564,817371,177.30000001192093,"<div style=""font-size:42px;"">SERPENT</div>",32,,word,SERPENT,,,,,,,,,,,,
html-keyboard-response,565,818874,null,"",null,,word,SERPENT,,,,,,,,,,,,
html-keyboard-response,566,819076,null,"<div style=""font-size:42px;"">SUNSET</div><img id = ""stim"" ><div class = green_square id = bottomsquare></div>",null,encoding,word_square,,,1,bottomsquare,32,true,,,SUNSET,4,,,
html-keyboard-response,567,819380,170.30000001192093,"<div style=""font-size:42px;"">SUNSET</div>",32,,word,SUNSET,,,,,,,,,,,,
html-keyboard-response,568,820885,null,"",null,,word,SUNSET,,,,,,,,,,,,
html-keyboard-response,569,821088,null,"<div style=""font-size:42px;"">BEAKER</div><img id = ""stim"" ><div class = red_square id = bottomsquare></div>",null,encoding,word_square,,,0,bottomsquare,none,true,,,BEAKER,4,,,
html-keyboard-response,570,821390,null,"<div style=""font-size:42px;"">BEAKER</div>",null,,word,BEAKER,,,,,,,,,,,,
html-keyboard-response,571,822893,null,"",null,,word,BEAKER,,,,,,,,,,,,
html-keyboard-response,572,823096,null,"<div style=""font-size:42px;"">LAMP</div><img id = ""stim"" ><div class = green_square id = topsquare></div>",null,encoding,word_square,,,1,topsquare,32,true,,,LAMP,4,,,
html-keyboard-response,573,823398,294.89999997615814,"<div style=""font-size:42px;"">LAMP</div>",32,,word,LAMP,,,,,,,,,,,,
html-keyboard-response,574,824901,null,"",null,,word,LAMP,,,,,,,,,,,,
html-keyboard-response,575,825107,null,"<div style=""font-size:42px;"">WIDOW</div><img id = ""stim"" ><div class = red_square id = topsquare></div>",null,encoding,word_square,,,0,topsquare,none,true,,,WIDOW,4,,,
html-keyboard-response,576,825409,null,"<div style=""font-size:42px;"">WIDOW</div>",null,,word,WIDOW,,,,,,,,,,,,
html-keyboard-response,577,826912,null,"",null,,word,WIDOW,,,,,,,,,,,,
html-keyboard-response,578,827115,null,"<div style=""font-size:42px;"">PEOPLE</div><img id = ""stim"" ><div class = red_square id = bottomsquare></div>",null,encoding,word_square,,,0,bottomsquare,none,true,,,PEOPLE,4,,,
html-keyboard-response,579,827417,null,"<div style=""font-size:42px;"">PEOPLE</div>",null,,word,PEOPLE,,,,,,,,,,,,
html-keyboard-response,580,828922,null,"",null,,word,PEOPLE,,,,,,,,,,,,
html-keyboard-response,581,829125,null,"<div style=""font-size:42px;"">CRICKET</div><img id = ""stim"" ><div class = green_square id = bottomsquare></div>",null,encoding,word_square,,,1,bottomsquare,32,true,,,CRICKET,4,,,
html-keyboard-response,582,829430,121.19999998807907,"<div style=""font-size:42px;"">CRICKET</div>",32,,word,CRICKET,,,,,,,,,,,,
html-keyboard-response,583,830938,null,"",null,,word,CRICKET,,,,,,,,,,,,
html-keyboard-response,584,831141,null,"<div style=""font-size:42px;"">BANDIT</div><img id = ""stim"" ><div class = green_square id = topsquare></div>",null,encoding,word_square,,,1,topsquare,32,true,,,BANDIT,4,,,
html-keyboard-response,585,831444,212.2999999821186,"<div style=""font-size:42px;"">BANDIT</div>",32,,word,BANDIT,,,,,,,,,,,,
html-keyboard-response,586,832948,null,"",null,,word,BANDIT,,,,,,,,,,,,
html-keyboard-response,587,833151,null,"<div style=""font-size:42px;"">SPHINX</div><img id = ""stim"" ><div class = red_square id = topsquare></div>",null,encoding,word_square,,,0,topsquare,none,true,,,SPHINX,4,,,
html-keyboard-response,588,833454,null,"<div style=""font-size:42px;"">SPHINX</div>",null,,word,SPHINX,,,,,,,,,,,,
html-keyboard-response,589,834956,null,"",null,,word,SPHINX,,,,,,,,,,,,
html-keyboard-response,590,835159,null,"<div style=""font-size:42px;"">PANTHER</div><img id = ""stim"" ><div class = green_square id = bottomsquare></div>",null,encoding,word_square,,,1,bottomsquare,32,true,,,PANTHER,4,,,
html-keyboard-response,591,835462,146.09999999403954,"<div style=""font-size:42px;"">PANTHER</div>",32,,word,PANTHER,,,,,,,,,,,,
html-keyboard-response,592,836965,null,"",null,,word,PANTHER,,,,,,,,,,,,
html-keyboard-response,593,837167,null,"<div style=""font-size:42px;"">BATHTUB</div><img id = ""stim"" ><div class = red_square id = bottomsquare></div>",null,encoding,word_square,,,0,bottomsquare,none,true,,,BATHTUB,4,,,
html-keyboard-response,594,837472,null,"<div style=""font-size:42px;"">BATHTUB</div>",null,,word,BATHTUB,,,,,,,,,,,,
html-keyboard-response,595,838980,null,"",null,,word,BATHTUB,,,,,,,,,,,,
html-keyboard-response,596,839183,null,"<div style=""font-size:42px;"">CANAL</div><img id = ""stim"" ><div class = red_square id = topsquare></div>",null,encoding,word_square,,,0,topsquare,none,true,,,CANAL,4,,,
html-keyboard-response,597,839487,null,"<div style=""font-size:42px;"">CANAL</div>",null,,word,CANAL,,,,,,,,,,,,
html-keyboard-response,598,840993,null,"",null,,word,CANAL,,,,,,,,,,,,
call-function,599,840995,,"",,,,,,,,,,,,,,,,
html-keyboard-response,600,841097,null,"",null,,,,,,,,,,,,,,,
math-period,601,842657,2958.899999976158,"",,,,,,,,,,,3,,,,,
html-keyboard-response,602,842761,null,"",null,,,,,,,,,,,,,,,
math-period,603,843921,2093.100000023842,"",,,,,,,,,,,2,,,,,
html-keyboard-response,604,844027,null,"",null,,,,,,,,,,,,,,,
math-period,605,845048,1880.2000000476837,"",,,,,,,,,,,4,,,,,
html-keyboard-response,606,845151,null,"",null,,,,,,,,,,,,,,,
math-period,607,846706,2946.2000000178814,"",,,,,,,,,,,2,,,,,
html-keyboard-response,608,846807,null,"",null,,,,,,,,,,,,,,,
math-period,609,847961,2169.4000000059605,"",,,,,,,,,,,2,,,,,
html-keyboard-response,610,848064,null,"",null,,,,,,,,,,,,,,,
math-period,611,850106,3990.800000011921,"",,,,,,,,,,,0,,,,,
html-keyboard-response,612,850211,null,"",null,,,,,,,,,,,,,,,
math-period,613,852057,3528.9999999701977,"",,,,,,,,,,,3,,,,,
html-keyboard-response,614,852160,null,"",null,,,,,,,,,,,,,,,
math-period,615,853489,2535,"",,,,,,,,,,,1,,,,,
html-keyboard-response,616,853591,null,"",null,,,,,,,,,,,,,,,
math-period,617,854473,1656.4000000357628,"",,,,,,,,,,,4,,,,,
html-keyboard-response,618,854576,null,"",null,,,,,,,,,,,,,,,
math-period,619,855777,2232.300000011921,"",,,,,,,,,,,5,,,,,
html-keyboard-response,620,855882,null,"",null,,,,,,,,,,,,,,,
math-period,621,856729,1618.800000011921,"",,,,,,,,,,,5,,,,,
html-keyboard-response,622,856832,null,"",null,,,,,,,,,,,,,,,
math-period,623,858148,2552.5999999940395,"",,,,,,,,,,,4,,,,,
html-keyboard-response,624,858251,null,"",null,,,,,,,,,,,,,,,
math-period,625,859825,2993.9999999701977,"",,,,,,,,,,,3,,,,,
html-keyboard-response,626,859928,null,"",null,,,,,,,,,,,,,,,
math-period,627,861434,2904.5999999940395,"",,,,,,,,,,,2,,,,,
html-keyboard-response,628,861536,null,"",null,,,,,,,,,,,,,,,
math-period,629,862833,2424.5000000298023,"",,,,,,,,,,,3,,,,,
html-keyboard-response,630,862936,null,"",null,,,,,,,,,,,,,,,
math-period,631,863825,1681.4999999701977,"",,,,,,,,,,,4,,,,,
html-keyboard-response,632,863927,null,"",null,,,,,,,,,,,,,,,
math-period,633,864996,976.7000000178814,"",,,,,,,,,,,1,,,,,
html-keyboard-response,634,865999,null,"Recall Period!",null,,,,,,,,,,,,,,,
call-function,635,866000,,"",,,,,,,,,,,,,,,,
html-keyboard-response,636,866102,null,"",null,,,,,,,,,,,,,,,
recall-period,637,868017,10943.099999964237,"",,,,,,,,,,,softball,,,,,
html-keyboard-response,638,868120,null,"",null,,,,,,,,,,,,,,,
recall-period,639,870231,10770.100000113249,"",,,,,,,,,,,headband,,,,,
html-keyboard-response,640,870334,null,"",null,,,,,,,,,,,,,,,
recall-period,641,871553,5381.8999999165535,"",,,,,,,,,,,cricket,,,,,
html-keyboard-response,642,871655,null,"",null,,,,,,,,,,,,,,,
recall-period,643,872593,2518.599999934435,"",,,,,,,,,,,canal,,,,,
html-keyboard-response,644,872696,null,"",null,,,,,,,,,,,,,,,
recall-period,645,877321,29532.80000001192,"",,,,,,,,,,,beaker,,,,,
html-keyboard-response,646,877424,null,"",null,,,,,,,,,,,,,,,
recall-period,647,941004,null,"",,,,,,,,,,,,,,,,
html-keyboard-response,648,941509,null,"Time's Up!",null,,,,,,,,,,,,,,,
html-keyboard-response,649,943907,2395.4000000059605,"<p> Good job! You have responded correctly to 100% of the trials. </p>
                      <p>Be sure to only press the spacebar if you see a GREEN square, and please keep your accuracy above 80%.</p>
                      <p> Press any key to continue the experiment. </p>",32,,,,,,,,,,,,,,,
html-keyboard-response,650,944557,647.2999999821186,"<div style=""font-size:48px;"">Press any key to begin list 6 of 16 </div>",32,,,,,,,,,,,,,,,
html-keyboard-response,651,947060,null,"<div style=""font-size:60px;"">+</div>",null,,,,,,,,,,,,,,,
html-keyboard-response,652,947263,null,"<div style=""font-size:42px;"">GREASE</div><img id = ""stim"" ><div class = red_square id = topsquare></div>",null,encoding,word_square,,,0,topsquare,none,true,,,GREASE,5,,,
html-keyboard-response,653,947565,null,"<div style=""font-size:42px;"">GREASE</div>",null,,word,GREASE,,,,,,,,,,,,
html-keyboard-response,654,949069,null,"",null,,word,GREASE,,,,,,,,,,,,
html-keyboard-response,655,949278,null,"<div style=""font-size:42px;"">VALVE</div><img id = ""stim"" ><div class = red_square id = bottomsquare></div>",null,encoding,word_square,,,0,bottomsquare,none,true,,,VALVE,5,,,
html-keyboard-response,656,949583,null,"<div style=""font-size:42px;"">VALVE</div>",null,,word,VALVE,,,,,,,,,,,,
html-keyboard-response,657,951098,null,"",null,,word,VALVE,,,,,,,,,,,,
html-keyboard-response,658,951301,null,"<div style=""font-size:42px;"">SCOTCH</div><img id = ""stim"" ><div class = green_square id = bottomsquare></div>",null,encoding,word_square,,,1,bottomsquare,32,true,,,SCOTCH,5,,,
html-keyboard-response,659,951604,262.69999998807907,"<div style=""font-size:42px;"">SCOTCH</div>",32,,word,SCOTCH,,,,,,,,,,,,
html-keyboard-response,660,953107,null,"",null,,word,SCOTCH,,,,,,,,,,,,
html-keyboard-response,661,953310,null,"<div style=""font-size:42px;"">MONARCH</div><img id = ""stim"" ><div class = red_square id = topsquare></div>",null,encoding,word_square,,,0,topsquare,none,true,,,MONARCH,5,,,
html-keyboard-response,662,953613,null,"<div style=""font-size:42px;"">MONARCH</div>",null,,word,MONARCH,,,,,,,,,,,,
html-keyboard-response,663,955117,null,"",null,,word,MONARCH,,,,,,,,,,,,
html-keyboard-response,664,955320,null,"<div style=""font-size:42px;"">SCAPEGOAT</div><img id = ""stim"" ><div class = green_square id = topsquare></div>",null,encoding,word_square,,,1,topsquare,32,true,,,SCAPEGOAT,5,,,
html-keyboard-response,665,955624,194.60000002384186,"<div style=""font-size:42px;"">SCAPEGOAT</div>",32,,word,SCAPEGOAT,,,,,,,,,,,,
html-keyboard-response,666,957142,null,"",null,,word,SCAPEGOAT,,,,,,,,,,,,
html-keyboard-response,667,957346,null,"<div style=""font-size:42px;"">VIKING</div><img id = ""stim"" ><div class = green_square id = bottomsquare></div>",null,encoding,word_square,,,1,bottomsquare,32,true,,,VIKING,5,,,
html-keyboard-response,668,957648,264.19999998807907,"<div style=""font-size:42px;"">VIKING</div>",32,,word,VIKING,,,,,,,,,,,,
html-keyboard-response,669,959153,null,"",null,,word,VIKING,,,,,,,,,,,,
html-keyboard-response,670,959359,null,"<div style=""font-size:42px;"">DRINK</div><img id = ""stim"" ><div class = red_square id = bottomsquare></div>",null,encoding,word_square,,,0,bottomsquare,none,true,,,DRINK,5,,,
html-keyboard-response,671,959662,null,"<div style=""font-size:42px;"">DRINK</div>",null,,word,DRINK,,,,,,,,,,,,
html-keyboard-response,672,961167,null,"",null,,word,DRINK,,,,,,,,,,,,
html-keyboard-response,673,961372,null,"<div style=""font-size:42px;"">PEACH</div><img id = ""stim"" ><div class = red_square id = topsquare></div>",null,encoding,word_square,,,0,topsquare,none,true,,,PEACH,5,,,
html-keyboard-response,674,961676,null,"<div style=""font-size:42px;"">PEACH</div>",null,,word,PEACH,,,,,,,,,,,,
html-keyboard-response,675,963181,null,"",null,,word,PEACH,,,,,,,,,,,,
html-keyboard-response,676,963385,null,"<div style=""font-size:42px;"">NAPKIN</div><img id = ""stim"" ><div class = green_square id = topsquare></div>",null,encoding,word_square,,,1,topsquare,32,true,,,NAPKIN,5,,,
html-keyboard-response,677,963689,null,"<div style=""font-size:42px;"">NAPKIN</div>",null,,word,NAPKIN,,,,,,,,,,,,
html-keyboard-response,678,965192,26,"",32,,word,NAPKIN,,,,,,,,,,,,
html-keyboard-response,679,965395,null,"<div style=""font-size:42px;"">AUTHOR</div><img id = ""stim"" ><div class = red_square id = bottomsquare></div>",null,encoding,word_square,,,0,bottomsquare,none,true,,,AUTHOR,5,,,
html-keyboard-response,680,965698,null,"<div style=""font-size:42px;"">AUTHOR</div>",null,,word,AUTHOR,,,,,,,,,,,,
html-keyboard-response,681,967202,null,"",null,,word,AUTHOR,,,,,,,,,,,,
html-keyboard-response,682,967405,null,"<div style=""font-size:42px;"">NOVEL</div><img id = ""stim"" ><div class = green_square id = bottomsquare></div>",null,encoding,word_square,,,1,bottomsquare,32,true,,,NOVEL,5,,,
html-keyboard-response,683,967709,183,"<div style=""font-size:42px;"">NOVEL</div>",32,,word,NOVEL,,,,,,,,,,,,
html-keyboard-response,684,969212,null,"",null,,word,NOVEL,,,,,,,,,,,,
html-keyboard-response,685,969415,null,"<div style=""font-size:42px;"">HOUSE</div><img id = ""stim"" ><div class = green_square id = topsquare></div>",null,encoding,word_square,,,1,topsquare,32,true,,,HOUSE,5,,,
html-keyboard-response,686,969718,285.10000002384186,"<div style=""font-size:42px;"">HOUSE</div>",32,,word,HOUSE,,,,,,,,,,,,
html-keyboard-response,687,971223,null,"",null,,word,HOUSE,,,,,,,,,,,,
html-keyboard-response,688,971429,null,"<div style=""font-size:42px;"">RECORD</div><img id = ""stim"" ><div class = green_square id = bottomsquare></div>",null,encoding,word_square,,,1,bottomsquare,32,true,,,RECORD,5,,,
html-keyboard-response,689,971733,125.7000000178814,"<div style=""font-size:42px;"">RECORD</div>",32,,word,RECORD,,,,,,,,,,,,
html-keyboard-response,690,973237,null,"",null,,word,RECORD,,,,,,,,,,,,
html-keyboard-response,691,973441,null,"<div style=""font-size:42px;"">BUG</div><img id = ""stim"" ><div class = red_square id = topsquare></div>",null,encoding,word_square,,,0,topsquare,none,true,,,BUG,5,,,
html-keyboard-response,692,973744,null,"<div style=""font-size:42px;"">BUG</div>",null,,word,BUG,,,,,,,,,,,,
html-keyboard-response,693,975247,null,"",null,,word,BUG,,,,,,,,,,,,
html-keyboard-response,694,975450,null,"<div style=""font-size:42px;"">WASP</div><img id = ""stim"" ><div class = red_square id = bottomsquare></div>",null,encoding,word_square,,,0,bottomsquare,none,true,,,WASP,5,,,
html-keyboard-response,695,975753,null,"<div style=""font-size:42px;"">WASP</div>",null,,word,WASP,,,,,,,,,,,,
html-keyboard-response,696,977256,null,"",null,,word,WASP,,,,,,,,,,,,
html-keyboard-response,697,977458,null,"<div style=""font-size:42px;"">LODGE</div><img id = ""stim"" ><div class = green_square id = topsquare></div>",null,encoding,word_square,,,1,topsquare,32,true,,,LODGE,5,,,
html-keyboard-response,698,977763,162.89999997615814,"<div style=""font-size:42px;"">LODGE</div>",32,,word,LODGE,,,,,,,,,,,,
html-keyboard-response,699,979274,null,"",null,,word,LODGE,,,,,,,,,,,,
call-function,700,979276,,"",,,,,,,,,,,,,,,,
html-keyboard-response,701,979378,null,"",null,,,,,,,,,,,,,,,
math-period,702,982676,6353.300000011921,"",,,,,,,,,,,3,,,,,
html-keyboard-response,703,982778,null,"",null,,,,,,,,,,,,,,,
math-period,704,984620,3593.300000011921,"",,,,,,,,,,,5,,,,,
html-keyboard-response,705,984723,null,"",null,,,,,,,,,,,,,,,
math-period,706,986620,3694.9000000059605,"",,,,,,,,,,,3,,,,,
html-keyboard-response,707,986726,null,"",null,,,,,,,,,,,,,,,
math-period,708,988460,3382.300000011921,"",,,,,,,,,,,0,,,,,
html-keyboard-response,709,988563,null,"",null,,,,,,,,,,,,,,,
math-period,710,990484,3740.599999964237,"",,,,,,,,,,,2,,,,,
html-keyboard-response,711,990587,null,"",null,,,,,,,,,,,,,,,
math-period,712,991653,2000.300000011921,"",,,,,,,,,,,3,,,,,
html-keyboard-response,713,991756,null,"",null,,,,,,,,,,,,,,,
math-period,714,993196,2701.4999999701977,"",,,,,,,,,,,6,,,,,
html-keyboard-response,715,993300,null,"",null,,,,,,,,,,,,,,,
math-period,716,994500,2315.6999999582767,"",,,,,,,,,,,1,,,,,
html-keyboard-response,717,994602,null,"",null,,,,,,,,,,,,,,,
math-period,718,995692,2048.6999999582767,"",,,,,,,,,,,3,,,,,
html-keyboard-response,719,995796,null,"",null,,,,,,,,,,,,,,,
math-period,720,998481,5310.800000011921,"",,,,,,,,,,,3,,,,,
html-keyboard-response,721,998592,null,"",null,,,,,,,,,,,,,,,
math-period,722,999956,2685.2999999821186,"",,,,,,,,,,,4,,,,,
html-keyboard-response,723,1000059,null,"",null,,,,,,,,,,,,,,,
math-period,724,1001428,2648.9000000059605,"",,,,,,,,,,,5,,,,,
html-keyboard-response,725,1001530,null,"",null,,,,,,,,,,,,,,,
math-period,726,1003278,1736.4000000059605,"",,,,,,,,,,,4,,,,,
html-keyboard-response,727,1004283,null,"Recall Period!",null,,,,,,,,,,,,,,,
call-function,728,1004285,,"",,,,,,,,,,,,,,,,
html-keyboard-response,729,1004387,null,"",null,,,,,,,,,,,,,,,
recall-period,730,1007220,15449.500000029802,"",,,,,,,,,,,grease,,,,,
html-keyboard-response,731,1007322,null,"",null,,,,,,,,,,,,,,,
recall-period,732,1008478,3844.3000000417233,"",,,,,,,,,,,valve,,,,,
html-keyboard-response,733,1008580,null,"",null,,,,,,,,,,,,,,,
recall-period,734,1009940,3996.2999998629093,"",,,,,,,,,,,scotch,,,,,
html-keyboard-response,735,1010042,null,"",null,,,,,,,,,,,,,,,
recall-period,736,1011182,3071.299999922514,"",,,,,,,,,,,drink,,,,,
html-keyboard-response,737,1011285,null,"",null,,,,,,,,,,,,,,,
recall-period,738,1012293,4168.4000000059605,"",,,,,,,,,,,peach,,,,,
html-keyboard-response,739,1012397,null,"",null,,,,,,,,,,,,,,,
recall-period,740,1015125,13465.399999976158,"",,,,,,,,,,,skunk,,,,,
html-keyboard-response,741,1015227,null,"",null,,,,,,,,,,,,,,,
recall-period,742,1079288,null,"",,,,,,,,,,,,,,,,
html-keyboard-response,743,1079791,null,"Time's Up!",null,,,,,,,,,,,,,,,
html-keyboard-response,744,1079923,129.09999999403954,"<p> Good job! You have responded correctly to 100% of the trials. </p>
                      <p>Be sure to only press the spacebar if you see a GREEN square, and please keep your accuracy above 80%.</p>
                      <p> Press any key to continue the experiment. </p>",32,,,,,,,,,,,,,,,
html-keyboard-response,745,1080729,804,"<div style=""font-size:48px;"">Press any key to begin list 7 of 16 </div>",32,,,,,,,,,,,,,,,
html-keyboard-response,746,1083232,null,"<div style=""font-size:60px;"">+</div>",null,,,,,,,,,,,,,,,
html-keyboard-response,747,1083434,null,"<div style=""font-size:42px;"">PENCIL</div><img id = ""stim"" ><div class = red_square id = bottomsquare></div>",null,encoding,word_square,,,0,bottomsquare,none,true,,,PENCIL,6,,,
html-keyboard-response,748,1083737,null,"<div style=""font-size:42px;"">PENCIL</div>",null,,word,PENCIL,,,,,,,,,,,,
html-keyboard-response,749,1085246,null,"",null,,word,PENCIL,,,,,,,,,,,,
html-keyboard-response,750,1085450,null,"<div style=""font-size:42px;"">TREAT</div><img id = ""stim"" ><div class = green_square id = topsquare></div>",null,encoding,word_square,,,1,topsquare,32,true,,,TREAT,6,,,
html-keyboard-response,751,1085753,163.7999999821186,"<div style=""font-size:42px;"">TREAT</div>",32,,word,TREAT,,,,,,,,,,,,
html-keyboard-response,752,1087256,null,"",null,,word,TREAT,,,,,,,,,,,,
html-keyboard-response,753,1087459,null,"<div style=""font-size:42px;"">FOX</div><img id = ""stim"" ><div class = green_square id = bottomsquare></div>",null,encoding,word_square,,,1,bottomsquare,32,true,,,FOX,6,,,
html-keyboard-response,754,1087761,171.5,"<div style=""font-size:42px;"">FOX</div>",32,,word,FOX,,,,,,,,,,,,
html-keyboard-response,755,1089265,null,"",null,,word,FOX,,,,,,,,,,,,
html-keyboard-response,756,1089469,null,"<div style=""font-size:42px;"">BRANDY</div><img id = ""stim"" ><div class = red_square id = topsquare></div>",null,encoding,word_square,,,0,topsquare,none,true,,,BRANDY,6,,,
html-keyboard-response,757,1089775,null,"<div style=""font-size:42px;"">BRANDY</div>",null,,word,BRANDY,,,,,,,,,,,,
html-keyboard-response,758,1091280,null,"",null,,word,BRANDY,,,,,,,,,,,,
html-keyboard-response,759,1091482,null,"<div style=""font-size:42px;"">BOARD</div><img id = ""stim"" ><div class = red_square id = bottomsquare></div>",null,encoding,word_square,,,0,bottomsquare,none,false,,,BOARD,6,,,
html-keyboard-response,760,1091784,null,"<div style=""font-size:42px;"">BOARD</div>",null,,word,BOARD,,,,,,,,,,,,
html-keyboard-response,761,1093288,198.2000000178814,"",32,,word,BOARD,,,,,,,,,,,,
html-keyboard-response,762,1093491,null,"<div style=""font-size:42px;"">BUTLER</div><img id = ""stim"" ><div class = red_square id = topsquare></div>",null,encoding,word_square,,,0,topsquare,none,true,,,BUTLER,6,,,
html-keyboard-response,763,1093794,null,"<div style=""font-size:42px;"">BUTLER</div>",null,,word,BUTLER,,,,,,,,,,,,
html-keyboard-response,764,1095296,null,"",null,,word,BUTLER,,,,,,,,,,,,
html-keyboard-response,765,1095500,null,"<div style=""font-size:42px;"">MOP</div><img id = ""stim"" ><div class = green_square id = topsquare></div>",null,encoding,word_square,,,1,topsquare,32,true,,,MOP,6,,,
html-keyboard-response,766,1095808,244.2999999821186,"<div style=""font-size:42px;"">MOP</div>",32,,word,MOP,,,,,,,,,,,,
html-keyboard-response,767,1097322,null,"",null,,word,MOP,,,,,,,,,,,,
html-keyboard-response,768,1097526,null,"<div style=""font-size:42px;"">RUG</div><img id = ""stim"" ><div class = red_square id = bottomsquare></div>",null,encoding,word_square,,,0,bottomsquare,none,true,,,RUG,6,,,
html-keyboard-response,769,1097830,null,"<div style=""font-size:42px;"">RUG</div>",null,,word,RUG,,,,,,,,,,,,
html-keyboard-response,770,1099333,null,"",null,,word,RUG,,,,,,,,,,,,
html-keyboard-response,771,1099537,null,"<div style=""font-size:42px;"">LITTER</div><img id = ""stim"" ><div class = green_square id = bottomsquare></div>",null,encoding,word_square,,,1,bottomsquare,32,true,,,LITTER,6,,,
html-keyboard-response,772,1099838,133.59999999403954,"<div style=""font-size:42px;"">LITTER</div>",32,,word,LITTER,,,,,,,,,,,,
html-keyboard-response,773,1101340,null,"",null,,word,LITTER,,,,,,,,,,,,
html-keyboard-response,774,1101545,null,"<div style=""font-size:42px;"">WRENCH</div><img id = ""stim"" ><div class = green_square id = topsquare></div>",null,encoding,word_square,,,1,topsquare,32,true,,,WRENCH,6,,,
html-keyboard-response,775,1101850,269.19999998807907,"<div style=""font-size:42px;"">WRENCH</div>",32,,word,WRENCH,,,,,,,,,,,,
html-keyboard-response,776,1103371,null,"",null,,word,WRENCH,,,,,,,,,,,,
html-keyboard-response,777,1103575,null,"<div style=""font-size:42px;"">COUNTRY</div><img id = ""stim"" ><div class = red_square id = topsquare></div>",null,encoding,word_square,,,0,topsquare,none,true,,,COUNTRY,6,,,
html-keyboard-response,778,1103878,null,"<div style=""font-size:42px;"">COUNTRY</div>",null,,word,COUNTRY,,,,,,,,,,,,
html-keyboard-response,779,1105391,null,"",null,,word,COUNTRY,,,,,,,,,,,,
html-keyboard-response,780,1105594,null,"<div style=""font-size:42px;"">JAPAN</div><img id = ""stim"" ><div class = red_square id = bottomsquare></div>",null,encoding,word_square,,,0,bottomsquare,none,true,,,JAPAN,6,,,
html-keyboard-response,781,1105898,null,"<div style=""font-size:42px;"">JAPAN</div>",null,,word,JAPAN,,,,,,,,,,,,
html-keyboard-response,782,1107403,null,"",null,,word,JAPAN,,,,,,,,,,,,
html-keyboard-response,783,1107606,null,"<div style=""font-size:42px;"">GAVEL</div><img id = ""stim"" ><div class = green_square id = bottomsquare></div>",null,encoding,word_square,,,1,bottomsquare,32,true,,,GAVEL,6,,,
html-keyboard-response,784,1107910,239.5,"<div style=""font-size:42px;"">GAVEL</div>",32,,word,GAVEL,,,,,,,,,,,,
html-keyboard-response,785,1109416,null,"",null,,word,GAVEL,,,,,,,,,,,,
html-keyboard-response,786,1109619,null,"<div style=""font-size:42px;"">CHAMPAGNE</div><img id = ""stim"" ><div class = red_square id = topsquare></div>",null,encoding,word_square,,,0,topsquare,none,true,,,CHAMPAGNE,6,,,
html-keyboard-response,787,1109923,null,"<div style=""font-size:42px;"">CHAMPAGNE</div>",null,,word,CHAMPAGNE,,,,,,,,,,,,
html-keyboard-response,788,1111427,null,"",null,,word,CHAMPAGNE,,,,,,,,,,,,
html-keyboard-response,789,1111630,null,"<div style=""font-size:42px;"">MILDEW</div><img id = ""stim"" ><div class = green_square id = topsquare></div>",null,encoding,word_square,,,1,topsquare,32,true,,,MILDEW,6,,,
html-keyboard-response,790,1111933,null,"<div style=""font-size:42px;"">MILDEW</div>",null,,word,MILDEW,,,,,,,,,,,,
html-keyboard-response,791,1113436,137.40000000596046,"",32,,word,MILDEW,,,,,,,,,,,,
html-keyboard-response,792,1113639,null,"<div style=""font-size:42px;"">VAGRANT</div><img id = ""stim"" ><div class = green_square id = bottomsquare></div>",null,encoding,word_square,,,1,bottomsquare,32,true,,,VAGRANT,6,,,
html-keyboard-response,793,1113942,223.59999999403954,"<div style=""font-size:42px;"">VAGRANT</div>",32,,word,VAGRANT,,,,,,,,,,,,
html-keyboard-response,794,1115445,null,"",null,,word,VAGRANT,,,,,,,,,,,,
call-function,795,1115446,,"",,,,,,,,,,,,,,,,
html-keyboard-response,796,1115553,null,"",null,,,,,,,,,,,,,,,
math-period,797,1118312,5289.300000011921,"",,,,,,,,,,,5,,,,,
html-keyboard-response,798,1118416,null,"",null,,,,,,,,,,,,,,,
math-period,799,1120081,3261.199999988079,"",,,,,,,,,,,5,,,,,
html-keyboard-response,800,1120184,null,"",null,,,,,,,,,,,,,,,
math-period,801,1121720,2946.9000000059605,"",,,,,,,,,,,2,,,,,
html-keyboard-response,802,1121823,null,"",null,,,,,,,,,,,,,,,
math-period,803,1123192,2630.9999999701977,"",,,,,,,,,,,4,,,,,
html-keyboard-response,804,1123296,null,"",null,,,,,,,,,,,,,,,
math-period,805,1125080,3548.800000011921,"",,,,,,,,,,,3,,,,,
html-keyboard-response,806,1125183,null,"",null,,,,,,,,,,,,,,,
math-period,807,1126024,1566.4000000059605,"",,,,,,,,,,,3,,,,,
html-keyboard-response,808,1126125,null,"",null,,,,,,,,,,,,,,,
math-period,809,1126792,1241.9000000059605,"",,,,,,,,,,,3,,,,,
html-keyboard-response,810,1126895,null,"",null,,,,,,,,,,,,,,,
math-period,811,1127992,2053.699999988079,"",,,,,,,,,,,1,,,,,
html-keyboard-response,812,1128096,null,"",null,,,,,,,,,,,,,,,
math-period,813,1129168,2058.599999964237,"",,,,,,,,,,,3,,,,,
html-keyboard-response,814,1129270,null,"",null,,,,,,,,,,,,,,,
math-period,815,1130696,2679.800000011921,"",,,,,,,,,,,2,,,,,
html-keyboard-response,816,1130800,null,"",null,,,,,,,,,,,,,,,
math-period,817,1131665,1624.9000000059605,"",,,,,,,,,,,4,,,,,
html-keyboard-response,818,1131768,null,"",null,,,,,,,,,,,,,,,
math-period,819,1132353,1118.4000000357628,"",,,,,,,,,,,4,,,,,
html-keyboard-response,820,1132457,null,"",null,,,,,,,,,,,,,,,
math-period,821,1133297,1646.0999999940395,"",,,,,,,,,,,5,,,,,
html-keyboard-response,822,1133399,null,"",null,,,,,,,,,,,,,,,
math-period,823,1134377,1912.7000000178814,"",,,,,,,,,,,4,,,,,
html-keyboard-response,824,1134479,null,"",null,,,,,,,,,,,,,,,
math-period,825,1135489,1944.7999999821186,"",,,,,,,,,,,2,,,,,
html-keyboard-response,826,1135592,null,"",null,,,,,,,,,,,,,,,
math-period,827,1137386,3503.600000023842,"",,,,,,,,,,,6,,,,,
html-keyboard-response,828,1137489,null,"",null,,,,,,,,,,,,,,,
math-period,829,1138441,1830.3999999761581,"",,,,,,,,,,,4,,,,,
html-keyboard-response,830,1138544,null,"",null,,,,,,,,,,,,,,,
math-period,831,1139448,null,"",,,,,,,,,,,,,,,,
html-keyboard-response,832,1140449,null,"Recall Period!",null,,,,,,,,,,,,,,,
call-function,833,1140450,,"",,,,,,,,,,,,,,,,
html-keyboard-response,834,1140553,null,"",null,,,,,,,,,,,,,,,
recall-period,835,1143050,13375.100000083447,"",,,,,,,,,,,pencil,,,,,
html-keyboard-response,836,1143152,null,"",null,,,,,,,,,,,,,,,
recall-period,837,1143882,1583.5999999642372,"",,,,,,,,,,,mop,,,,,
html-keyboard-response,838,1143984,null,"",null,,,,,,,,,,,,,,,
recall-period,839,1145210,4336.9000000059605,"",,,,,,,,,,,brandy,,,,,
html-keyboard-response,840,1145313,null,"",null,,,,,,,,,,,,,,,
recall-period,841,1146362,4023.9999999701977,"",,,,,,,,,,,board,,,,,
html-keyboard-response,842,1146465,null,"",null,,,,,,,,,,,,,,,
recall-period,843,1148138,8287.099999964237,"",,,,,,,,,,,butler,,,,,
html-keyboard-response,844,1148240,null,"",null,,,,,,,,,,,,,,,
recall-period,845,1149658,6726.899999976158,"",,,,,,,,,,,champagne,,,,,
html-keyboard-response,846,1149769,null,"",null,,,,,,,,,,,,,,,
recall-period,847,1178969,229336.90000009537,"",,,,,,,,,,,vagrant,,,,,
html-keyboard-response,848,1179071,null,"",null,,,,,,,,,,,,,,,
recall-period,849,1215457,null,"",,,,,,,,,,,,,,,,
html-keyboard-response,850,1215960,null,"Time's Up!",null,,,,,,,,,,,,,,,
html-keyboard-response,851,1218547,2585,"<p> Good job! You have responded correctly to 99% of the trials. </p>
                      <p>Be sure to only press the spacebar if you see a GREEN square, and please keep your accuracy above 80%.</p>
                      <p> Press any key to continue the experiment. </p>",32,,,,,,,,,,,,,,,
html-keyboard-response,852,1219156,606.8999999761581,"<div style=""font-size:48px;"">Press any key to begin list 8 of 16 </div>",32,,,,,,,,,,,,,,,
html-keyboard-response,853,1221660,null,"<div style=""font-size:60px;"">+</div>",null,,,,,,,,,,,,,,,
html-keyboard-response,854,1221863,null,"<div style=""font-size:42px;"">VAMPIRE</div><img id = ""stim"" ><div class = green_square id = bottomsquare></div>",null,encoding,word_square,,,1,bottomsquare,32,true,,,VAMPIRE,7,,,
html-keyboard-response,855,1222166,195.5,"<div style=""font-size:42px;"">VAMPIRE</div>",32,,word,VAMPIRE,,,,,,,,,,,,
html-keyboard-response,856,1223668,null,"",null,,word,VAMPIRE,,,,,,,,,,,,
html-keyboard-response,857,1223872,null,"<div style=""font-size:42px;"">INSECT</div><img id = ""stim"" ><div class = green_square id = topsquare></div>",null,encoding,word_square,,,1,topsquare,32,true,,,INSECT,7,,,
html-keyboard-response,858,1224174,161.30000001192093,"<div style=""font-size:42px;"">INSECT</div>",32,,word,INSECT,,,,,,,,,,,,
html-keyboard-response,859,1225677,null,"",null,,word,INSECT,,,,,,,,,,,,
html-keyboard-response,860,1225880,null,"<div style=""font-size:42px;"">TWIG</div><img id = ""stim"" ><div class = red_square id = topsquare></div>",null,encoding,word_square,,,0,topsquare,none,true,,,TWIG,7,,,
html-keyboard-response,861,1226182,null,"<div style=""font-size:42px;"">TWIG</div>",null,,word,TWIG,,,,,,,,,,,,
html-keyboard-response,862,1227684,null,"",null,,word,TWIG,,,,,,,,,,,,
html-keyboard-response,863,1227902,null,"<div style=""font-size:42px;"">SHRUB</div><img id = ""stim"" ><div class = green_square id = bottomsquare></div>",null,encoding,word_square,,,1,bottomsquare,32,true,,,SHRUB,7,,,
html-keyboard-response,864,1228206,146.40000000596046,"<div style=""font-size:42px;"">SHRUB</div>",32,,word,SHRUB,,,,,,,,,,,,
html-keyboard-response,865,1229710,null,"",null,,word,SHRUB,,,,,,,,,,,,
html-keyboard-response,866,1229913,null,"<div style=""font-size:42px;"">DRILL</div><img id = ""stim"" ><div class = red_square id = bottomsquare></div>",null,encoding,word_square,,,0,bottomsquare,none,true,,,DRILL,7,,,
html-keyboard-response,867,1230215,null,"<div style=""font-size:42px;"">DRILL</div>",null,,word,DRILL,,,,,,,,,,,,
html-keyboard-response,868,1231719,null,"",null,,word,DRILL,,,,,,,,,,,,
html-keyboard-response,869,1231924,null,"<div style=""font-size:42px;"">DIVER</div><img id = ""stim"" ><div class = red_square id = topsquare></div>",null,encoding,word_square,,,0,topsquare,none,true,,,DIVER,7,,,
html-keyboard-response,870,1232228,null,"<div style=""font-size:42px;"">DIVER</div>",null,,word,DIVER,,,,,,,,,,,,
html-keyboard-response,871,1233731,null,"",null,,word,DIVER,,,,,,,,,,,,
html-keyboard-response,872,1233934,null,"<div style=""font-size:42px;"">BUBBLE</div><img id = ""stim"" ><div class = green_square id = topsquare></div>",null,encoding,word_square,,,1,topsquare,32,true,,,BUBBLE,7,,,
html-keyboard-response,873,1234237,182.19999998807907,"<div style=""font-size:42px;"">BUBBLE</div>",32,,word,BUBBLE,,,,,,,,,,,,
html-keyboard-response,874,1235741,null,"",null,,word,BUBBLE,,,,,,,,,,,,
html-keyboard-response,875,1235947,null,"<div style=""font-size:42px;"">BREAST</div><img id = ""stim"" ><div class = green_square id = bottomsquare></div>",null,encoding,word_square,,,1,bottomsquare,32,true,,,BREAST,7,,,
html-keyboard-response,876,1236250,229.5,"<div style=""font-size:42px;"">BREAST</div>",32,,word,BREAST,,,,,,,,,,,,
html-keyboard-response,877,1237754,null,"",null,,word,BREAST,,,,,,,,,,,,
html-keyboard-response,878,1237959,null,"<div style=""font-size:42px;"">CREVICE</div><img id = ""stim"" ><div class = red_square id = bottomsquare></div>",null,encoding,word_square,,,0,bottomsquare,none,false,,,CREVICE,7,,,
html-keyboard-response,879,1238262,null,"<div style=""font-size:42px;"">CREVICE</div>",null,,word,CREVICE,,,,,,,,,,,,
html-keyboard-response,880,1239772,67.5,"",32,,word,CREVICE,,,,,,,,,,,,
html-keyboard-response,881,1239978,null,"<div style=""font-size:42px;"">DRUG</div><img id = ""stim"" ><div class = green_square id = topsquare></div>",null,encoding,word_square,,,1,topsquare,32,true,,,DRUG,7,,,
html-keyboard-response,882,1240283,165.19999998807907,"<div style=""font-size:42px;"">DRUG</div>",32,,word,DRUG,,,,,,,,,,,,
html-keyboard-response,883,1241787,null,"",null,,word,DRUG,,,,,,,,,,,,
html-keyboard-response,884,1241991,null,"<div style=""font-size:42px;"">FIGHTER</div><img id = ""stim"" ><div class = red_square id = topsquare></div>",null,encoding,word_square,,,0,topsquare,none,true,,,FIGHTER,7,,,
html-keyboard-response,885,1242294,null,"<div style=""font-size:42px;"">FIGHTER</div>",null,,word,FIGHTER,,,,,,,,,,,,
html-keyboard-response,886,1243797,null,"",null,,word,FIGHTER,,,,,,,,,,,,
html-keyboard-response,887,1244000,null,"<div style=""font-size:42px;"">GRILL</div><img id = ""stim"" ><div class = red_square id = bottomsquare></div>",null,encoding,word_square,,,0,bottomsquare,none,true,,,GRILL,7,,,
html-keyboard-response,888,1244304,null,"<div style=""font-size:42px;"">GRILL</div>",null,,word,GRILL,,,,,,,,,,,,
html-keyboard-response,889,1245808,null,"",null,,word,GRILL,,,,,,,,,,,,
html-keyboard-response,890,1246011,null,"<div style=""font-size:42px;"">SHAMPOO</div><img id = ""stim"" ><div class = red_square id = topsquare></div>",null,encoding,word_square,,,0,topsquare,none,false,,,SHAMPOO,7,,,
html-keyboard-response,891,1246314,null,"<div style=""font-size:42px;"">SHAMPOO</div>",null,,word,SHAMPOO,,,,,,,,,,,,
html-keyboard-response,892,1247852,247.69999998807907,"",32,,word,SHAMPOO,,,,,,,,,,,,
html-keyboard-response,893,1248055,null,"<div style=""font-size:42px;"">SKILLET</div><img id = ""stim"" ><div class = green_square id = bottomsquare></div>",null,encoding,word_square,,,1,bottomsquare,32,true,,,SKILLET,7,,,
html-keyboard-response,894,1248359,297.5,"<div style=""font-size:42px;"">SKILLET</div>",32,,word,SKILLET,,,,,,,,,,,,
html-keyboard-response,895,1249862,null,"",null,,word,SKILLET,,,,,,,,,,,,
html-keyboard-response,896,1250072,null,"<div style=""font-size:42px;"">PUPIL</div><img id = ""stim"" ><div class = green_square id = topsquare></div>",null,encoding,word_square,,,1,topsquare,32,true,,,PUPIL,7,,,
html-keyboard-response,897,1250382,174.90000000596046,"<div style=""font-size:42px;"">PUPIL</div>",32,,word,PUPIL,,,,,,,,,,,,
html-keyboard-response,898,1251891,null,"",null,,word,PUPIL,,,,,,,,,,,,
html-keyboard-response,899,1252095,null,"<div style=""font-size:42px;"">FLOWER</div><img id = ""stim"" ><div class = red_square id = bottomsquare></div>",null,encoding,word_square,,,0,bottomsquare,none,true,,,FLOWER,7,,,
html-keyboard-response,900,1252398,null,"<div style=""font-size:42px;"">FLOWER</div>",null,,word,FLOWER,,,,,,,,,,,,
html-keyboard-response,901,1253901,null,"",null,,word,FLOWER,,,,,,,,,,,,
call-function,902,1253903,,"",,,,,,,,,,,,,,,,
html-keyboard-response,903,1254004,null,"",null,,,,,,,,,,,,,,,
math-period,904,1256124,3774.699999988079,"",,,,,,,,,,,5,,,,,
html-keyboard-response,905,1256228,null,"",null,,,,,,,,,,,,,,,
math-period,906,1257517,2491.2000000178814,"",,,,,,,,,,,1,,,,,
html-keyboard-response,907,1257621,null,"",null,,,,,,,,,,,,,,,
math-period,908,1258757,2139.199999988079,"",,,,,,,,,,,4,,,,,
html-keyboard-response,909,1258860,null,"",null,,,,,,,,,,,,,,,
math-period,910,1259804,1804.800000011921,"",,,,,,,,,,,4,,,,,
html-keyboard-response,911,1259908,null,"",null,,,,,,,,,,,,,,,
math-period,912,1261861,3837.400000035763,"",,,,,,,,,,,2,,,,,
html-keyboard-response,913,1261964,null,"",null,,,,,,,,,,,,,,,
math-period,914,1265324,9590.100000083447,"",,,,,,,,,,,1,,,,,
html-keyboard-response,915,1265427,null,"",null,,,,,,,,,,,,,,,
math-period,916,1266397,1880.2000000178814,"",,,,,,,,,,,1,,,,,
html-keyboard-response,917,1266502,null,"",null,,,,,,,,,,,,,,,
math-period,918,1267622,2083.400000035763,"",,,,,,,,,,,1,,,,,
html-keyboard-response,919,1267727,null,"",null,,,,,,,,,,,,,,,
math-period,920,1268932,2367.899999976158,"",,,,,,,,,,,5,,,,,
html-keyboard-response,921,1269034,null,"",null,,,,,,,,,,,,,,,
math-period,922,1270236,2354,"",,,,,,,,,,,1,,,,,
html-keyboard-response,923,1270339,null,"",null,,,,,,,,,,,,,,,
math-period,924,1271388,1959.699999988079,"",,,,,,,,,,,4,,,,,
html-keyboard-response,925,1271493,null,"",null,,,,,,,,,,,,,,,
math-period,926,1273637,4225.500000029802,"",,,,,,,,,,,0,,,,,
html-keyboard-response,927,1273739,null,"",null,,,,,,,,,,,,,,,
math-period,928,1277904,7491.500000029802,"",,,,,,,,,,,,,,,,
html-keyboard-response,929,1278908,null,"Recall Period!",null,,,,,,,,,,,,,,,
call-function,930,1278910,,"",,,,,,,,,,,,,,,,
html-keyboard-response,931,1279012,null,"",null,,,,,,,,,,,,,,,
recall-period,932,1281972,14113.899999976158,"",,,,,,,,,,,vampire,,,,,
html-keyboard-response,933,1282074,null,"",null,,,,,,,,,,,,,,,
recall-period,934,1283757,7770.5999999940395,"",,,,,,,,,,,diver,,,,,
html-keyboard-response,935,1283861,null,"",null,,,,,,,,,,,,,,,
recall-period,936,1285356,7663.700000017881,"",,,,,,,,,,,bubble,,,,,
html-keyboard-response,937,1285459,null,"",null,,,,,,,,,,,,,,,
recall-period,938,1286620,5245.400000095367,"",,,,,,,,,,,skillet,,,,,
html-keyboard-response,939,1286723,null,"",null,,,,,,,,,,,,,,,
recall-period,940,1288396,6469.200000047684,"",,,,,,,,,,,pupil,,,,,
html-keyboard-response,941,1288498,null,"",null,,,,,,,,,,,,,,,
recall-period,942,1291468,16285.300000071526,"",,,,,,,,,,,breast,,,,,
html-keyboard-response,943,1291571,null,"",null,,,,,,,,,,,,,,,
recall-period,944,1344542,315949.5000000894,"",,,,,,,,,,,diver,,,,,
html-keyboard-response,945,1344649,null,"",null,,,,,,,,,,,,,,,
