trial_type,trial_index,time_elapsed,rt,stimulus,key_press,exp_phase,test_part,word,task,targ_cond,sq_pos,correctKeyCode,correct,value,response,Word,List,RecResp,serial_pos,colorChosen
pavlovia,0,3222,,"",,,,,,,,,,,,,,,,
external-html,1,577442,573982.400000006,"",,,,,,,,,,,,,,,,
html-keyboard-response,2,579390,1942,"Welcome to the experiment. Press any key to begin.",32,,,,,,,,,,,,,,,
html-keyboard-response,3,595724,16331.60000000894,"<p>You will see a list of words and colored squares in the following task.<p><p>Press the spacebar whenever you see a GREEN square.<p><p>Do not press a key if the square is RED.<p><p>Press the spacebar to continue.</p>",32,,,,,,,,,,,,,,,
html-keyboard-response,4,611215,14987.29999999702,"<p>Please try to remember as many of the words as you can, and try to think about the meaning of each word as it appears.<p><p>After the detection and encoding task you will be asked to solve some math problems for 24 seconds.<p> Please solve as many problems as you can in the time given. <p><p><p>Press the spacebar to continue.</p>",32,,,,,,,,,,,,,,,
html-keyboard-response,5,617208,5489.5,"After solving the math problems, you will be asked to type in as many words <p>from the previous list as you can remember for 75 seconds.<p> If you finish recalling before the 75 seconds are up,<p> just sit tight and try to think of any more words you could have missed. <p><p><p>Press the spacebar to continue.</p>",32,,,,,,,,,,,,,,,
html-keyboard-response,6,622228,4517,"There will be 16 lists of words and recall, followed  by<p><p> a recognition phase. The experiment is expected to take up to 90 minutes.<p>We will begin with a brief practice session.<p>Press the spacebar to begin the practice.</p>",32,,,,,,,,,,,,,,,
html-keyboard-response,7,624734,null,"<div style=""font-size:60px;"">+</div>",null,,,,,,,,,,,,,,,
html-keyboard-response,8,624943,null,"<div style=""font-size:42px;"">HAPPY</div><img id = ""stim"" ><div class = red_square id = ""bottomsquare"" ></div>",null,practice,word_square,HAPPY,prac_response,0,Bottom,none,true,,,,,,,
html-keyboard-response,9,625263,null,"<div style=""font-size:42px;"">HAPPY</div>",null,,word,HAPPY,,,,,,,,,,,,
html-keyboard-response,10,626769,null,"",null,,word,HAPPY,,,,,,,,,,,,
html-keyboard-response,11,626973,null,"<div style=""font-size:42px;"">COLD</div><img id = ""stim"" ><div class = green_square id = ""bottomsquare"" ></div>",null,practice,word_square,COLD,prac_response,1,Bottom,32,true,,,,,,,
html-keyboard-response,12,627276,262.29999999701977,"<div style=""font-size:42px;"">COLD</div>",32,,word,COLD,,,,,,,,,,,,
html-keyboard-response,13,628803,null,"",null,,word,COLD,,,,,,,,,,,,
html-keyboard-response,14,629006,null,"<div style=""font-size:42px;"">HEAVY</div><img id = ""stim"" ><div class = green_square id = ""topsquare"" ></div>",null,practice,word_square,HEAVY,prac_response,1,Top,32,true,,,,,,,
html-keyboard-response,15,629309,168.5,"<div style=""font-size:42px;"">HEAVY</div>",32,,word,HEAVY,,,,,,,,,,,,
html-keyboard-response,16,630812,null,"",null,,word,HEAVY,,,,,,,,,,,,
html-keyboard-response,17,631015,null,"<div style=""font-size:42px;"">FUNNY</div><img id = ""stim"" ><div class = red_square id = ""topsquare"" ></div>",null,practice,word_square,FUNNY,prac_response,0,Top,none,true,,,,,,,
html-keyboard-response,18,631318,null,"<div style=""font-size:42px;"">FUNNY</div>",null,,word,FUNNY,,,,,,,,,,,,
html-keyboard-response,19,632827,null,"",null,,word,FUNNY,,,,,,,,,,,,
html-keyboard-response,20,633035,null,"<div style=""font-size:42px;"">SCARY</div><img id = ""stim"" ><div class = green_square id = ""bottomsquare"" ></div>",null,practice,word_square,SCARY,prac_response,1,Bottom,32,true,,,,,,,
html-keyboard-response,21,633338,145.90000000596046,"<div style=""font-size:42px;"">SCARY</div>",32,,word,SCARY,,,,,,,,,,,,
html-keyboard-response,22,634841,null,"",null,,word,SCARY,,,,,,,,,,,,
html-keyboard-response,23,635045,null,"<div style=""font-size:42px;"">PEACEFUL</div><img id = ""stim"" ><div class = green_square id = ""topsquare"" ></div>",null,practice,word_square,PEACEFUL,prac_response,1,Top,32,true,,,,,,,
html-keyboard-response,24,635348,135.09999999403954,"<div style=""font-size:42px;"">PEACEFUL</div>",32,,word,PEACEFUL,,,,,,,,,,,,
html-keyboard-response,25,636854,null,"",null,,word,PEACEFUL,,,,,,,,,,,,
html-keyboard-response,26,637057,null,"<div style=""font-size:42px;"">LITTLE</div><img id = ""stim"" ><div class = red_square id = ""bottomsquare"" ></div>",null,practice,word_square,LITTLE,prac_response,0,Bottom,none,true,,,,,,,
html-keyboard-response,27,637361,null,"<div style=""font-size:42px;"">LITTLE</div>",null,,word,LITTLE,,,,,,,,,,,,
html-keyboard-response,28,638863,null,"",null,,word,LITTLE,,,,,,,,,,,,
html-keyboard-response,29,639067,null,"<div style=""font-size:42px;"">TIRED</div><img id = ""stim"" ><div class = red_square id = ""topsquare"" ></div>",null,practice,word_square,TIRED,prac_response,0,Top,none,true,,,,,,,
html-keyboard-response,30,639375,null,"<div style=""font-size:42px;"">TIRED</div>",null,,word,TIRED,,,,,,,,,,,,
html-keyboard-response,31,640878,null,"",null,,word,TIRED,,,,,,,,,,,,
html-keyboard-response,32,641081,null,"<div style=""font-size:42px;"">ENTERTAINING</div><img id = ""stim"" ><div class = red_square id = ""bottomsquare"" ></div>",null,practice,word_square,ENTERTAINING,prac_response,0,Bottom,none,true,,,,,,,
html-keyboard-response,33,641384,null,"<div style=""font-size:42px;"">ENTERTAINING</div>",null,,word,ENTERTAINING,,,,,,,,,,,,
html-keyboard-response,34,642886,null,"",null,,word,ENTERTAINING,,,,,,,,,,,,
html-keyboard-response,35,643089,null,"<div style=""font-size:42px;"">GRATEFUL</div><img id = ""stim"" ><div class = green_square id = ""bottomsquare"" ></div>",null,practice,word_square,GRATEFUL,prac_response,1,Bottom,32,true,,,,,,,
html-keyboard-response,36,643392,127.20000000298023,"<div style=""font-size:42px;"">GRATEFUL</div>",32,,word,GRATEFUL,,,,,,,,,,,,
html-keyboard-response,37,644895,null,"",null,,word,GRATEFUL,,,,,,,,,,,,
html-keyboard-response,38,645098,null,"<div style=""font-size:42px;"">LOUD</div><img id = ""stim"" ><div class = red_square id = ""topsquare"" ></div>",null,practice,word_square,LOUD,prac_response,0,Top,none,true,,,,,,,
html-keyboard-response,39,645401,null,"<div style=""font-size:42px;"">LOUD</div>",null,,word,LOUD,,,,,,,,,,,,
html-keyboard-response,40,646903,null,"",null,,word,LOUD,,,,,,,,,,,,
html-keyboard-response,41,647106,null,"<div style=""font-size:42px;"">SMART</div><img id = ""stim"" ><div class = green_square id = ""topsquare"" ></div>",null,practice,word_square,SMART,prac_response,1,Top,32,true,,,,,,,
html-keyboard-response,42,647409,96.90000000596046,"<div style=""font-size:42px;"">SMART</div>",32,,word,SMART,,,,,,,,,,,,
html-keyboard-response,43,648912,null,"",null,,word,SMART,,,,,,,,,,,,
html-keyboard-response,44,649115,null,"<div style=""font-size:42px;"">SMOOTH</div><img id = ""stim"" ><div class = green_square id = ""bottomsquare"" ></div>",null,practice,word_square,SMOOTH,prac_response,1,Bottom,32,true,,,,,,,
html-keyboard-response,45,649418,163.70000000298023,"<div style=""font-size:42px;"">SMOOTH</div>",32,,word,SMOOTH,,,,,,,,,,,,
html-keyboard-response,46,650930,null,"",null,,word,SMOOTH,,,,,,,,,,,,
html-keyboard-response,47,651137,null,"<div style=""font-size:42px;"">DISHONEST</div><img id = ""stim"" ><div class = red_square id = ""bottomsquare"" ></div>",null,practice,word_square,DISHONEST,prac_response,0,Bottom,none,true,,,,,,,
html-keyboard-response,48,651440,null,"<div style=""font-size:42px;"">DISHONEST</div>",null,,word,DISHONEST,,,,,,,,,,,,
html-keyboard-response,49,652943,null,"",null,,word,DISHONEST,,,,,,,,,,,,
html-keyboard-response,50,653147,null,"<div style=""font-size:42px;"">WEALTHY</div><img id = ""stim"" ><div class = green_square id = ""topsquare"" ></div>",null,practice,word_square,WEALTHY,prac_response,1,Top,32,true,,,,,,,
html-keyboard-response,51,653450,123.90000000596046,"<div style=""font-size:42px;"">WEALTHY</div>",32,,word,WEALTHY,,,,,,,,,,,,
html-keyboard-response,52,654959,null,"",null,,word,WEALTHY,,,,,,,,,,,,
html-keyboard-response,53,655162,null,"<div style=""font-size:42px;"">BEAUTIFUL</div><img id = ""stim"" ><div class = red_square id = ""topsquare"" ></div>",null,practice,word_square,BEAUTIFUL,prac_response,0,Top,none,true,,,,,,,
html-keyboard-response,54,655465,null,"<div style=""font-size:42px;"">BEAUTIFUL</div>",null,,word,BEAUTIFUL,,,,,,,,,,,,
html-keyboard-response,55,656968,null,"",null,,word,BEAUTIFUL,,,,,,,,,,,,
html-keyboard-response,56,661402,4428.5,"<p> Good job! You responded correctly to 100% of the trials. </p>
                  <p>Be sure to only press the spacebar if you see a GREEN square, and please keep your accuracy above 80%.</p>
                  <p>We're going to try once more to make sure you understand the task. press any key to continue. </p>",32,,,,,,,,,,,,,,,
html-keyboard-response,57,663649,2244.4000000059605,"<p>You will see a list of words and colored squares in the following task.<p><p>Press the spacebar whenever you see a GREEN square.<p><p>Do not press a key if the square is RED<p><p>Press the spacebar to continue.</p>",32,,,,,,,,,,,,,,,
html-keyboard-response,58,666152,null,"<div style=""font-size:60px;"">+</div>",null,,,,,,,,,,,,,,,
html-keyboard-response,59,666355,null,"<div style=""font-size:42px;"">HAPPY</div><img id = ""stim"" ><div class = red_square id = ""bottomsquare"" ></div>",null,practice2,word_square,HAPPY,prac_response,0,Bottom,none,true,,,,,,,
html-keyboard-response,60,666658,null,"<div style=""font-size:42px;"">HAPPY</div>",null,,word,HAPPY,,,,,,,,,,,,
html-keyboard-response,61,668161,null,"",null,,word,HAPPY,,,,,,,,,,,,
html-keyboard-response,62,668365,null,"<div style=""font-size:42px;"">COLD</div><img id = ""stim"" ><div class = green_square id = ""bottomsquare"" ></div>",null,practice2,word_square,,prac_response,1,Bottom,32,true,,,,,,,
html-keyboard-response,63,668677,138.30000001192093,"<div style=""font-size:42px;"">COLD</div>",32,,word,COLD,,,,,,,,,,,,
html-keyboard-response,64,670181,null,"",null,,word,COLD,,,,,,,,,,,,
html-keyboard-response,65,670384,null,"<div style=""font-size:42px;"">HEAVY</div><img id = ""stim"" ><div class = green_square id = ""topsquare"" ></div>",null,practice2,word_square,,prac_response,1,Top,32,true,,,,,,,
html-keyboard-response,66,670687,135.80000001192093,"<div style=""font-size:42px;"">HEAVY</div>",32,,word,HEAVY,,,,,,,,,,,,
html-keyboard-response,67,672190,null,"",null,,word,HEAVY,,,,,,,,,,,,
html-keyboard-response,68,672393,null,"<div style=""font-size:42px;"">FUNNY</div><img id = ""stim"" ><div class = red_square id = ""topsquare"" ></div>",null,practice2,word_square,,prac_response,0,Top,none,true,,,,,,,
html-keyboard-response,69,672696,null,"<div style=""font-size:42px;"">FUNNY</div>",null,,word,FUNNY,,,,,,,,,,,,
html-keyboard-response,70,674199,null,"",null,,word,FUNNY,,,,,,,,,,,,
html-keyboard-response,71,674402,null,"<div style=""font-size:42px;"">SCARY</div><img id = ""stim"" ><div class = green_square id = ""bottomsquare"" ></div>",null,practice2,word_square,,prac_response,1,Bottom,32,true,,,,,,,
html-keyboard-response,72,674705,114,"<div style=""font-size:42px;"">SCARY</div>",32,,word,SCARY,,,,,,,,,,,,
html-keyboard-response,73,676217,null,"",null,,word,SCARY,,,,,,,,,,,,
html-keyboard-response,74,676420,null,"<div style=""font-size:42px;"">PEACEFUL</div><img id = ""stim"" ><div class = green_square id = ""topsquare"" ></div>",null,practice2,word_square,,prac_response,1,Top,32,true,,,,,,,
html-keyboard-response,75,676723,114.79999999701977,"<div style=""font-size:42px;"">PEACEFUL</div>",32,,word,PEACEFUL,,,,,,,,,,,,
html-keyboard-response,76,678226,null,"",null,,word,PEACEFUL,,,,,,,,,,,,
html-keyboard-response,77,678429,null,"<div style=""font-size:42px;"">LITTLE</div><img id = ""stim"" ><div class = red_square id = ""bottomsquare"" ></div>",null,practice2,word_square,LITTLE,prac_response,0,Bottom,none,true,,,,,,,
html-keyboard-response,78,678732,null,"<div style=""font-size:42px;"">LITTLE</div>",null,,word,LITTLE,,,,,,,,,,,,
html-keyboard-response,79,680323,null,"",null,,word,LITTLE,,,,,,,,,,,,
html-keyboard-response,80,680534,null,"<div style=""font-size:42px;"">TIRED</div><img id = ""stim"" ><div class = red_square id = ""topsquare"" ></div>",null,practice2,word_square,,prac_response,0,Top,none,true,,,,,,,
html-keyboard-response,81,680838,null,"<div style=""font-size:42px;"">TIRED</div>",null,,word,TIRED,,,,,,,,,,,,
html-keyboard-response,82,682341,null,"",null,,word,TIRED,,,,,,,,,,,,
html-keyboard-response,83,682545,null,"<div style=""font-size:42px;"">ENTERTAINING</div><img id = ""stim"" ><div class = red_square id = ""bottomsquare"" ></div>",null,practice2,word_square,ENTERTAINING,prac_response,0,Bottom,none,true,,,,,,,
html-keyboard-response,84,682847,null,"<div style=""font-size:42px;"">ENTERTAINING</div>",null,,word,ENTERTAINING,,,,,,,,,,,,
html-keyboard-response,85,684351,null,"",null,,word,ENTERTAINING,,,,,,,,,,,,
html-keyboard-response,86,684553,null,"<div style=""font-size:42px;"">GRATEFUL</div><img id = ""stim"" ><div class = green_square id = ""bottomsquare"" ></div>",null,practice2,word_square,,prac_response,1,Bottom,32,true,,,,,,,
html-keyboard-response,87,684857,146.79999999701977,"<div style=""font-size:42px;"">GRATEFUL</div>",32,,word,GRATEFUL,,,,,,,,,,,,
html-keyboard-response,88,686360,null,"",null,,word,GRATEFUL,,,,,,,,,,,,
html-keyboard-response,89,686564,null,"<div style=""font-size:42px;"">LOUD</div><img id = ""stim"" ><div class = red_square id = ""topsquare"" ></div>",null,practice2,word_square,,prac_response,0,Top,none,true,,,,,,,
html-keyboard-response,90,686867,null,"<div style=""font-size:42px;"">LOUD</div>",null,,word,LOUD,,,,,,,,,,,,
html-keyboard-response,91,688370,null,"",null,,word,LOUD,,,,,,,,,,,,
html-keyboard-response,92,688572,null,"<div style=""font-size:42px;"">SMART</div><img id = ""stim"" ><div class = green_square id = ""topsquare"" ></div>",null,practice2,word_square,,prac_response,1,Top,32,true,,,,,,,
html-keyboard-response,93,688876,86.90000000596046,"<div style=""font-size:42px;"">SMART</div>",32,,word,SMART,,,,,,,,,,,,
html-keyboard-response,94,690380,null,"",null,,word,SMART,,,,,,,,,,,,
html-keyboard-response,95,690583,null,"<div style=""font-size:42px;"">SMOOTH</div><img id = ""stim"" ><div class = green_square id = ""bottomsquare"" ></div>",null,practice2,word_square,,prac_response,1,Bottom,32,true,,,,,,,
html-keyboard-response,96,690885,181.29999999701977,"<div style=""font-size:42px;"">SMOOTH</div>",32,,word,SMOOTH,,,,,,,,,,,,
html-keyboard-response,97,692388,null,"",null,,word,SMOOTH,,,,,,,,,,,,
html-keyboard-response,98,692591,null,"<div style=""font-size:42px;"">DISHONEST</div><img id = ""stim"" ><div class = red_square id = ""bottomsquare"" ></div>",null,practice2,word_square,DISHONEST,prac_response,0,Bottom,none,true,,,,,,,
html-keyboard-response,99,692896,null,"<div style=""font-size:42px;"">DISHONEST</div>",null,,word,DISHONEST,,,,,,,,,,,,
html-keyboard-response,100,694401,null,"",null,,word,DISHONEST,,,,,,,,,,,,
html-keyboard-response,101,694605,null,"<div style=""font-size:42px;"">WEALTHY</div><img id = ""stim"" ><div class = green_square id = ""topsquare"" ></div>",null,practice2,word_square,,prac_response,1,Top,32,true,,,,,,,
html-keyboard-response,102,694908,71.8999999910593,"<div style=""font-size:42px;"">WEALTHY</div>",32,,word,WEALTHY,,,,,,,,,,,,
html-keyboard-response,103,696410,null,"",null,,word,WEALTHY,,,,,,,,,,,,
html-keyboard-response,104,696614,null,"<div style=""font-size:42px;"">BEAUTIFUL</div><img id = ""stim"" ><div class = red_square id = ""topsquare"" ></div>",null,practice2,word_square,,prac_response,0,Top,none,false,,,,,,,
html-keyboard-response,105,696917,null,"<div style=""font-size:42px;"">BEAUTIFUL</div>",null,,word,BEAUTIFUL,,,,,,,,,,,,
html-keyboard-response,106,698419,null,"",null,,word,BEAUTIFUL,,,,,,,,,,,,
html-keyboard-response,107,713885,15460.29999999702,"<p> Good job! You responded correctly to 100% of the trials. </p>
                    <p>Be sure to only press the spacebar if you see a GREEN square, and please keep your accuracy above 80%.</p>
                    <p>Press any key to begin the math and recall sections. Thank you! </p>",32,,,,,,,,,,,,,,,
call-function,108,713890,,"",,,,,,,,,,,,,,,,
html-keyboard-response,109,713993,null,"",null,,,,,,,,,,,,,,,
math-period,110,726297,31773.5,"",,,,,,,,,,,1numpad1,,,,,
html-keyboard-response,111,726402,null,"",null,,,,,,,,,,,,,,,
math-period,112,730899,8837.799999982119,"",,,,,,,,,,,3,,,,,
html-keyboard-response,113,731002,null,"",null,,,,,,,,,,,,,,,
math-period,114,733924,5720.799999982119,"",,,,,,,,,,,3,,,,,
html-keyboard-response,115,734027,null,"",null,,,,,,,,,,,,,,,
math-period,116,736324,4470.5999999940395,"",,,,,,,,,,,2,,,,,
html-keyboard-response,117,736430,null,"",null,,,,,,,,,,,,,,,
math-period,118,737894,null,"",,,,,,,,,,,,,,,,
html-keyboard-response,119,738899,null,"Recall Period!",null,,,,,,,,,,,,,,,
call-function,120,738900,,"",,,,,,,,,,,,,,,,
html-keyboard-response,121,739003,null,"",null,,,,,,,,,,,,,,,
recall-period,122,746127,35243.59999997914,"",,,,,,,,,,,happy,,,,,
html-keyboard-response,123,746230,null,"",null,,,,,,,,,,,,,,,
recall-period,124,747634,6241.999999985099,"",,,,,,,,,,,scared,,,,,
html-keyboard-response,125,747737,null,"",null,,,,,,,,,,,,,,,
recall-period,126,748816,3559.2000000476837,"",,,,,,,,,,,cold,,,,,
html-keyboard-response,127,748919,null,"",null,,,,,,,,,,,,,,,
recall-period,128,751664,17748.099999934435,"",,,,,,,,,,,heavy,,,,,
html-keyboard-response,129,751766,null,"",null,,,,,,,,,,,,,,,
recall-period,130,755082,20764.20000000298,"",,,,,,,,,,,beautiful,,,,,
html-keyboard-response,131,755185,null,"",null,,,,,,,,,,,,,,,
recall-period,132,759431,23274.90000000596,"",,,,,,,,,,,alive,,,,,
html-keyboard-response,133,759537,null,"",null,,,,,,,,,,,,,,,
recall-period,134,764205,33785.099999949336,"",,,,,,,,,,,feeling,,,,,
html-keyboard-response,135,764307,null,"",null,,,,,,,,,,,,,,,
recall-period,136,783379,142480.4999999553,"",,,,,,,,,,,wealthy,,,,,
html-keyboard-response,137,783483,null,"",null,,,,,,,,,,,,,,,
recall-period,138,813904,null,"",,,,,,,,,,,,,,,,
html-keyboard-response,139,814408,null,"Time's Up!",null,,,,,,,,,,,,,,,
html-keyboard-response,140,837718,23306.69999998808,"<p>We will now begin the experiment!<p><p>Please try to remember all words from each list.<p><p>Press the spacebar whenever you see a GREEN square.<p><p><p><p>Press the spacebar to begin.</p>",32,,,,,,,,,,,,,,,
html-keyboard-response,141,843935,5714,"<div style=""font-size:48px;"">Press any key to begin list 1 of 16 </div>",32,,,,,,,,,,,,,,,
html-keyboard-response,142,846438,null,"<div style=""font-size:60px;"">+</div>",null,,,,,,,,,,,,,,,
html-keyboard-response,143,846641,null,"<div style=""font-size:42px;"">ALMOND</div><img id = ""stim"" ><div class = green_square id = topsquare></div>",null,encoding,word_square,,,1,topsquare,32,true,,,ALMOND,0,,,
html-keyboard-response,144,846944,260.29999999701977,"<div style=""font-size:42px;"">ALMOND</div>",32,,word,ALMOND,,,,,,,,,,,,
html-keyboard-response,145,848447,null,"",null,,word,ALMOND,,,,,,,,,,,,
html-keyboard-response,146,848650,null,"<div style=""font-size:42px;"">RIFLE</div><img id = ""stim"" ><div class = green_square id = bottomsquare></div>",null,encoding,word_square,,,1,bottomsquare,32,true,,,RIFLE,0,,,
html-keyboard-response,147,848953,138.29999999701977,"<div style=""font-size:42px;"">RIFLE</div>",32,,word,RIFLE,,,,,,,,,,,,
html-keyboard-response,148,850456,null,"",null,,word,RIFLE,,,,,,,,,,,,
html-keyboard-response,149,850662,null,"<div style=""font-size:42px;"">JOKER</div><img id = ""stim"" ><div class = red_square id = bottomsquare></div>",null,encoding,word_square,,,0,bottomsquare,none,true,,,JOKER,0,,,
html-keyboard-response,150,850964,null,"<div style=""font-size:42px;"">JOKER</div>",null,,word,JOKER,,,,,,,,,,,,
html-keyboard-response,151,852467,null,"",null,,word,JOKER,,,,,,,,,,,,
html-keyboard-response,152,852671,null,"<div style=""font-size:42px;"">TUBA</div><img id = ""stim"" ><div class = green_square id = topsquare></div>",null,encoding,word_square,,,1,topsquare,32,true,,,TUBA,0,,,
html-keyboard-response,153,852973,192.90000000596046,"<div style=""font-size:42px;"">TUBA</div>",32,,word,TUBA,,,,,,,,,,,,
html-keyboard-response,154,854476,null,"",null,,word,TUBA,,,,,,,,,,,,
html-keyboard-response,155,854679,null,"<div style=""font-size:42px;"">RECORD</div><img id = ""stim"" ><div class = red_square id = topsquare></div>",null,encoding,word_square,,,0,topsquare,none,true,,,RECORD,0,,,
html-keyboard-response,156,854982,null,"<div style=""font-size:42px;"">RECORD</div>",null,,word,RECORD,,,,,,,,,,,,
html-keyboard-response,157,856485,null,"",null,,word,RECORD,,,,,,,,,,,,
html-keyboard-response,158,856688,null,"<div style=""font-size:42px;"">GRAVEL</div><img id = ""stim"" ><div class = green_square id = bottomsquare></div>",null,encoding,word_square,,,1,bottomsquare,32,true,,,GRAVEL,0,,,
html-keyboard-response,159,856991,126.19999998807907,"<div style=""font-size:42px;"">GRAVEL</div>",32,,word,GRAVEL,,,,,,,,,,,,
html-keyboard-response,160,858494,null,"",null,,word,GRAVEL,,,,,,,,,,,,
html-keyboard-response,161,858697,null,"<div style=""font-size:42px;"">BELT</div><img id = ""stim"" ><div class = green_square id = topsquare></div>",null,encoding,word_square,,,1,topsquare,32,true,,,BELT,0,,,
html-keyboard-response,162,859000,119.09999999403954,"<div style=""font-size:42px;"">BELT</div>",32,,word,BELT,,,,,,,,,,,,
html-keyboard-response,163,860503,null,"",null,,word,BELT,,,,,,,,,,,,
html-keyboard-response,164,860707,null,"<div style=""font-size:42px;"">MAGNET</div><img id = ""stim"" ><div class = red_square id = bottomsquare></div>",null,encoding,word_square,,,0,bottomsquare,none,true,,,MAGNET,0,,,
html-keyboard-response,165,861011,null,"<div style=""font-size:42px;"">MAGNET</div>",null,,word,MAGNET,,,,,,,,,,,,
html-keyboard-response,166,862513,null,"",null,,word,MAGNET,,,,,,,,,,,,
html-keyboard-response,167,862721,null,"<div style=""font-size:42px;"">EXPERT</div><img id = ""stim"" ><div class = red_square id = topsquare></div>",null,encoding,word_square,,,0,topsquare,none,true,,,EXPERT,0,,,
html-keyboard-response,168,863024,null,"<div style=""font-size:42px;"">EXPERT</div>",null,,word,EXPERT,,,,,,,,,,,,
html-keyboard-response,169,864527,null,"",null,,word,EXPERT,,,,,,,,,,,,
html-keyboard-response,170,864730,null,"<div style=""font-size:42px;"">TEACHER</div><img id = ""stim"" ><div class = green_square id = bottomsquare></div>",null,encoding,word_square,,,1,bottomsquare,32,true,,,TEACHER,0,,,
html-keyboard-response,171,865034,85.5,"<div style=""font-size:42px;"">TEACHER</div>",32,,word,TEACHER,,,,,,,,,,,,
html-keyboard-response,172,866540,null,"",null,,word,TEACHER,,,,,,,,,,,,
html-keyboard-response,173,866746,null,"<div style=""font-size:42px;"">INMATE</div><img id = ""stim"" ><div class = green_square id = topsquare></div>",null,encoding,word_square,,,1,topsquare,32,true,,,INMATE,0,,,
html-keyboard-response,174,867048,108.6000000089407,"<div style=""font-size:42px;"">INMATE</div>",32,,word,INMATE,,,,,,,,,,,,
html-keyboard-response,175,868552,null,"",null,,word,INMATE,,,,,,,,,,,,
html-keyboard-response,176,868755,null,"<div style=""font-size:42px;"">FRIES</div><img id = ""stim"" ><div class = red_square id = bottomsquare></div>",null,encoding,word_square,,,0,bottomsquare,none,true,,,FRIES,0,,,
html-keyboard-response,177,869059,null,"<div style=""font-size:42px;"">FRIES</div>",null,,word,FRIES,,,,,,,,,,,,
html-keyboard-response,178,870562,null,"",null,,word,FRIES,,,,,,,,,,,,
html-keyboard-response,179,870765,null,"<div style=""font-size:42px;"">CLOTHES</div><img id = ""stim"" ><div class = red_square id = topsquare></div>",null,encoding,word_square,,,0,topsquare,none,true,,,CLOTHES,0,,,
html-keyboard-response,180,871068,null,"<div style=""font-size:42px;"">CLOTHES</div>",null,,word,CLOTHES,,,,,,,,,,,,
html-keyboard-response,181,872572,null,"",null,,word,CLOTHES,,,,,,,,,,,,
html-keyboard-response,182,872775,null,"<div style=""font-size:42px;"">PISTOL</div><img id = ""stim"" ><div class = green_square id = bottomsquare></div>",null,encoding,word_square,,,1,bottomsquare,32,true,,,PISTOL,0,,,
html-keyboard-response,183,873078,103.09999999403954,"<div style=""font-size:42px;"">PISTOL</div>",32,,word,PISTOL,,,,,,,,,,,,
html-keyboard-response,184,874593,null,"",null,,word,PISTOL,,,,,,,,,,,,
html-keyboard-response,185,874796,null,"<div style=""font-size:42px;"">DIAMOND</div><img id = ""stim"" ><div class = red_square id = bottomsquare></div>",null,encoding,word_square,,,0,bottomsquare,none,true,,,DIAMOND,0,,,
html-keyboard-response,186,875100,null,"<div style=""font-size:42px;"">DIAMOND</div>",null,,word,DIAMOND,,,,,,,,,,,,
html-keyboard-response,187,876602,null,"",null,,word,DIAMOND,,,,,,,,,,,,
html-keyboard-response,188,876811,null,"<div style=""font-size:42px;"">AIRPORT</div><img id = ""stim"" ><div class = red_square id = topsquare></div>",null,encoding,word_square,,,0,topsquare,none,true,,,AIRPORT,0,,,
html-keyboard-response,189,877114,null,"<div style=""font-size:42px;"">AIRPORT</div>",null,,word,AIRPORT,,,,,,,,,,,,
html-keyboard-response,190,878618,null,"",null,,word,AIRPORT,,,,,,,,,,,,
call-function,191,878621,,"",,,,,,,,,,,,,,,,
html-keyboard-response,192,878726,null,"",null,,,,,,,,,,,,,,,
math-period,193,882489,7250.099999979138,"",,,,,,,,,,,3,,,,,
html-keyboard-response,194,882593,null,"",null,,,,,,,,,,,,,,,
math-period,195,884930,4571.999999985099,"",,,,,,,,,,,5,,,,,
html-keyboard-response,196,885037,null,"",null,,,,,,,,,,,,,,,
math-period,197,888368,6557.600000008941,"",,,,,,,,,,,3,,,,,
html-keyboard-response,198,888471,null,"",null,,,,,,,,,,,,,,,
math-period,199,890882,4723.399999991059,"",,,,,,,,,,,2,,,,,
html-keyboard-response,200,890984,null,"",null,,,,,,,,,,,,,,,
math-period,201,892858,3653.7000000029802,"",,,,,,,,,,,4,,,,,
html-keyboard-response,202,892961,null,"",null,,,,,,,,,,,,,,,
math-period,203,895331,4643.5999999940395,"",,,,,,,,,,,1,,,,,
html-keyboard-response,204,895434,null,"",null,,,,,,,,,,,,,,,
math-period,205,897738,4528.9000000059605,"",,,,,,,,,,,5,,,,,
html-keyboard-response,206,897851,null,"",null,,,,,,,,,,,,,,,
math-period,207,900068,4355,"",,,,,,,,,,,2,,,,,
html-keyboard-response,208,900170,null,"",null,,,,,,,,,,,,,,,
math-period,209,901985,3534.9000000059605,"",,,,,,,,,,,3,,,,,
html-keyboard-response,210,902088,null,"",null,,,,,,,,,,,,,,,
math-period,211,902622,null,"",,,,,,,,,,,,,,,,
html-keyboard-response,212,903625,null,"Recall Period!",null,,,,,,,,,,,,,,,
call-function,213,903626,,"",,,,,,,,,,,,,,,,
html-keyboard-response,214,903729,null,"",null,,,,,,,,,,,,,,,
recall-period,215,906887,17377.700000047684,"",,,,,,,,,,,almond,,,,,
html-keyboard-response,216,906990,null,"",null,,,,,,,,,,,,,,,
recall-period,217,908602,6275.399999976158,"",,,,,,,,,,,tuba,,,,,
html-keyboard-response,218,908705,null,"",null,,,,,,,,,,,,,,,
recall-period,219,913451,25014.70000000298,"",,,,,,,,,,,rifle,,,,,
html-keyboard-response,220,913558,null,"",null,,,,,,,,,,,,,,,
recall-period,221,915289,8046.200000047684,"",,,,,,,,,,,pistol,,,,,
html-keyboard-response,222,915392,null,"",null,,,,,,,,,,,,,,,
recall-period,223,918487,19861.500000029802,"",,,,,,,,,,,diamond,,,,,
html-keyboard-response,224,918594,null,"",null,,,,,,,,,,,,,,,
recall-period,225,921731,17986.29999999702,"",,,,,,,,,,,gravel,,,,,
html-keyboard-response,226,921835,null,"",null,,,,,,,,,,,,,,,
recall-period,227,955350,198580.30000002682,"",,,,,,,,,,,heavy,,,,,
html-keyboard-response,228,955453,null,"",null,,,,,,,,,,,,,,,
recall-period,229,978630,null,"",,,,,,,,,,,,,,,,
html-keyboard-response,230,979133,null,"Time's Up!",null,,,,,,,,,,,,,,,
html-keyboard-response,231,981739,2603.1000000089407,"<p> Good job! You have responded correctly to 100% of the trials. </p>
                      <p>Be sure to only press the spacebar if you see a GREEN square, and please keep your accuracy above 80%.</p>
                      <p> Press any key to continue the experiment. </p>",32,,,,,,,,,,,,,,,
html-keyboard-response,232,983245,1502.7999999970198,"<div style=""font-size:48px;"">Press any key to begin list 2 of 16 </div>",32,,,,,,,,,,,,,,,
html-keyboard-response,233,985747,null,"<div style=""font-size:60px;"">+</div>",null,,,,,,,,,,,,,,,
html-keyboard-response,234,985950,null,"<div style=""font-size:42px;"">RAILROAD</div><img id = ""stim"" ><div class = red_square id = topsquare></div>",null,encoding,word_square,,,0,topsquare,none,true,,,RAILROAD,1,,,
html-keyboard-response,235,986253,null,"<div style=""font-size:42px;"">RAILROAD</div>",null,,word,RAILROAD,,,,,,,,,,,,
html-keyboard-response,236,987756,null,"",null,,word,RAILROAD,,,,,,,,,,,,
html-keyboard-response,237,987959,null,"<div style=""font-size:42px;"">TUTU</div><img id = ""stim"" ><div class = red_square id = bottomsquare></div>",null,encoding,word_square,,,0,bottomsquare,none,true,,,TUTU,1,,,
html-keyboard-response,238,988262,null,"<div style=""font-size:42px;"">TUTU</div>",null,,word,TUTU,,,,,,,,,,,,
html-keyboard-response,239,989767,null,"",null,,word,TUTU,,,,,,,,,,,,
html-keyboard-response,240,989971,null,"<div style=""font-size:42px;"">DRESS</div><img id = ""stim"" ><div class = green_square id = bottomsquare></div>",null,encoding,word_square,,,1,bottomsquare,32,true,,,DRESS,1,,,
html-keyboard-response,241,990273,121.40000000596046,"<div style=""font-size:42px;"">DRESS</div>",32,,word,DRESS,,,,,,,,,,,,
html-keyboard-response,242,991787,null,"",null,,word,DRESS,,,,,,,,,,,,
html-keyboard-response,243,992010,null,"<div style=""font-size:42px;"">PRIMATE</div><img id = ""stim"" ><div class = red_square id = topsquare></div>",null,encoding,word_square,,,0,topsquare,none,true,,,PRIMATE,1,,,
html-keyboard-response,244,992322,null,"<div style=""font-size:42px;"">PRIMATE</div>",null,,word,PRIMATE,,,,,,,,,,,,
html-keyboard-response,245,993826,null,"",null,,word,PRIMATE,,,,,,,,,,,,
html-keyboard-response,246,994033,null,"<div style=""font-size:42px;"">RACKET</div><img id = ""stim"" ><div class = red_square id = bottomsquare></div>",null,encoding,word_square,,,0,bottomsquare,none,true,,,RACKET,1,,,
html-keyboard-response,247,994336,null,"<div style=""font-size:42px;"">RACKET</div>",null,,word,RACKET,,,,,,,,,,,,
html-keyboard-response,248,995839,null,"",null,,word,RACKET,,,,,,,,,,,,
html-keyboard-response,249,996043,null,"<div style=""font-size:42px;"">STAIRS</div><img id = ""stim"" ><div class = green_square id = topsquare></div>",null,encoding,word_square,,,1,topsquare,32,true,,,STAIRS,1,,,
html-keyboard-response,250,996347,126.20000000298023,"<div style=""font-size:42px;"">STAIRS</div>",32,,word,STAIRS,,,,,,,,,,,,
html-keyboard-response,251,997850,null,"",null,,word,STAIRS,,,,,,,,,,,,
html-keyboard-response,252,998053,null,"<div style=""font-size:42px;"">MONEY</div><img id = ""stim"" ><div class = green_square id = bottomsquare></div>",null,encoding,word_square,,,1,bottomsquare,32,true,,,MONEY,1,,,
html-keyboard-response,253,998356,159.70000000298023,"<div style=""font-size:42px;"">MONEY</div>",32,,word,MONEY,,,,,,,,,,,,
html-keyboard-response,254,999859,null,"",null,,word,MONEY,,,,,,,,,,,,
html-keyboard-response,255,1000062,null,"<div style=""font-size:42px;"">STALLION</div><img id = ""stim"" ><div class = red_square id = topsquare></div>",null,encoding,word_square,,,0,topsquare,none,true,,,STALLION,1,,,
html-keyboard-response,256,1000365,null,"<div style=""font-size:42px;"">STALLION</div>",null,,word,STALLION,,,,,,,,,,,,
html-keyboard-response,257,1001869,null,"",null,,word,STALLION,,,,,,,,,,,,
html-keyboard-response,258,1002072,null,"<div style=""font-size:42px;"">MARROW</div><img id = ""stim"" ><div class = red_square id = bottomsquare></div>",null,encoding,word_square,,,0,bottomsquare,none,true,,,MARROW,1,,,
html-keyboard-response,259,1002376,null,"<div style=""font-size:42px;"">MARROW</div>",null,,word,MARROW,,,,,,,,,,,,
html-keyboard-response,260,1003879,null,"",null,,word,MARROW,,,,,,,,,,,,
html-keyboard-response,261,1004082,null,"<div style=""font-size:42px;"">BACKBONE</div><img id = ""stim"" ><div class = green_square id = topsquare></div>",null,encoding,word_square,,,1,topsquare,32,true,,,BACKBONE,1,,,
html-keyboard-response,262,1004386,139.90000000596046,"<div style=""font-size:42px;"">BACKBONE</div>",32,,word,BACKBONE,,,,,,,,,,,,
html-keyboard-response,263,1005889,null,"",null,,word,BACKBONE,,,,,,,,,,,,
html-keyboard-response,264,1006092,null,"<div style=""font-size:42px;"">POND</div><img id = ""stim"" ><div class = green_square id = bottomsquare></div>",null,encoding,word_square,,,1,bottomsquare,32,true,,,POND,1,,,
html-keyboard-response,265,1006396,99.79999999701977,"<div style=""font-size:42px;"">POND</div>",32,,word,POND,,,,,,,,,,,,
html-keyboard-response,266,1007899,null,"",null,,word,POND,,,,,,,,,,,,
html-keyboard-response,267,1008102,null,"<div style=""font-size:42px;"">JUGGLER</div><img id = ""stim"" ><div class = red_square id = topsquare></div>",null,encoding,word_square,,,0,topsquare,none,true,,,JUGGLER,1,,,
html-keyboard-response,268,1008407,null,"<div style=""font-size:42px;"">JUGGLER</div>",null,,word,JUGGLER,,,,,,,,,,,,
html-keyboard-response,269,1009909,null,"",null,,word,JUGGLER,,,,,,,,,,,,
html-keyboard-response,270,1010113,null,"<div style=""font-size:42px;"">GYMNAST</div><img id = ""stim"" ><div class = green_square id = topsquare></div>",null,encoding,word_square,,,1,topsquare,32,true,,,GYMNAST,1,,,
html-keyboard-response,271,1010416,76.59999999403954,"<div style=""font-size:42px;"">GYMNAST</div>",32,,word,GYMNAST,,,,,,,,,,,,
html-keyboard-response,272,1011919,null,"",null,,word,GYMNAST,,,,,,,,,,,,
html-keyboard-response,273,1012122,null,"<div style=""font-size:42px;"">COMET</div><img id = ""stim"" ><div class = red_square id = bottomsquare></div>",null,encoding,word_square,,,0,bottomsquare,none,true,,,COMET,1,,,
html-keyboard-response,274,1012425,null,"<div style=""font-size:42px;"">COMET</div>",null,,word,COMET,,,,,,,,,,,,
html-keyboard-response,275,1013928,null,"",null,,word,COMET,,,,,,,,,,,,
html-keyboard-response,276,1014131,null,"<div style=""font-size:42px;"">GIRL</div><img id = ""stim"" ><div class = green_square id = bottomsquare></div>",null,encoding,word_square,,,1,bottomsquare,32,true,,,GIRL,1,,,
html-keyboard-response,277,1014435,152.19999998807907,"<div style=""font-size:42px;"">GIRL</div>",32,,word,GIRL,,,,,,,,,,,,
html-keyboard-response,278,1015938,null,"",null,,word,GIRL,,,,,,,,,,,,
html-keyboard-response,279,1016141,null,"<div style=""font-size:42px;"">MAPLE</div><img id = ""stim"" ><div class = green_square id = topsquare></div>",null,encoding,word_square,,,1,topsquare,32,true,,,MAPLE,1,,,
html-keyboard-response,280,1016446,92.80000001192093,"<div style=""font-size:42px;"">MAPLE</div>",32,,word,MAPLE,,,,,,,,,,,,
html-keyboard-response,281,1017950,null,"",null,,word,MAPLE,,,,,,,,,,,,
call-function,282,1017951,,"",,,,,,,,,,,,,,,,
html-keyboard-response,283,1018059,null,"",null,,,,,,,,,,,,,,,
math-period,284,1021149,6091.000000014901,"",,,,,,,,,,,6,,,,,
html-keyboard-response,285,1021252,null,"",null,,,,,,,,,,,,,,,
math-period,286,1023700,4794.999999985099,"",,,,,,,,,,,4,,,,,
html-keyboard-response,287,1023803,null,"",null,,,,,,,,,,,,,,,
math-period,288,1025793,3911.8999999910593,"",,,,,,,,,,,4,,,,,
html-keyboard-response,289,1025896,null,"",null,,,,,,,,,,,,,,,
math-period,290,1026933,1981.800000011921,"",,,,,,,,,,,4,,,,,
html-keyboard-response,291,1027035,null,"",null,,,,,,,,,,,,,,,
math-period,292,1028415,2672.2000000029802,"",,,,,,,,,,,4,,,,,
html-keyboard-response,293,1028518,null,"",null,,,,,,,,,,,,,,,
math-period,294,1029998,2882.5999999791384,"",,,,,,,,,,,3,,,,,
html-keyboard-response,295,1030101,null,"",null,,,,,,,,,,,,,,,
math-period,296,1031379,2447.9000000059605,"",,,,,,,,,,,2,,,,,
html-keyboard-response,297,1031482,null,"",null,,,,,,,,,,,,,,,
math-period,298,1033417,3788.8999999910593,"",,,,,,,,,,,2,,,,,
html-keyboard-response,299,1033519,null,"",null,,,,,,,,,,,,,,,
math-period,300,1035724,4313,"",,,,,,,,,,,3,,,,,
html-keyboard-response,301,1035827,null,"",null,,,,,,,,,,,,,,,
math-period,302,1037969,4197.20000000298,"",,,,,,,,,,,1,,,,,
html-keyboard-response,303,1038072,null,"",null,,,,,,,,,,,,,,,
math-period,304,1040175,4125.70000000298,"",,,,,,,,,,,4,,,,,
html-keyboard-response,305,1040278,null,"",null,,,,,,,,,,,,,,,
math-period,306,1041961,null,"",,,,,,,,,,,,,,,,
html-keyboard-response,307,1042965,null,"Recall Period!",null,,,,,,,,,,,,,,,
call-function,308,1042966,,"",,,,,,,,,,,,,,,,
html-keyboard-response,309,1043069,null,"",null,,,,,,,,,,,,,,,
recall-period,310,1044051,978.7999999970198,"",,,,,,,,,,,,,,,,
html-keyboard-response,311,1044154,null,"",null,,,,,,,,,,,,,,,
recall-period,312,1050108,41532.19999995828,"",,,,,,,,,,,airport,,,,,
html-keyboard-response,313,1050220,null,"",null,,,,,,,,,,,,,,,
recall-period,314,1051845,8754.700000032783,"",,,,,,,,,,,stallion,,,,,
html-keyboard-response,315,1051948,null,"",null,,,,,,,,,,,,,,,
recall-period,316,1056556,35088.0000000149,"",,,,,,,,,,,railroad,,,,,
html-keyboard-response,317,1056659,null,"",null,,,,,,,,,,,,,,,
recall-period,318,1061284,33171.39999996126,"",,,,,,,,,,,juggler,,,,,
html-keyboard-response,319,1061386,null,"",null,,,,,,,,,,,,,,,
recall-period,320,1079674,88068.89999996126,"",,,,,,,,,,,pond,,,,,
html-keyboard-response,321,1079780,null,"",null,,,,,,,,,,,,,,,
recall-period,322,1117968,null,"",,,,,,,,,,,,,,,,
html-keyboard-response,323,1118472,null,"Time's Up!",null,,,,,,,,,,,,,,,
html-keyboard-response,324,1120035,1558.699999988079,"<p> Good job! You have responded correctly to 100% of the trials. </p>
                      <p>Be sure to only press the spacebar if you see a GREEN square, and please keep your accuracy above 80%.</p>
                      <p> Press any key to continue the experiment. </p>",32,,,,,,,,,,,,,,,
html-keyboard-response,325,1120960,917.7000000029802,"<div style=""font-size:48px;"">Press any key to begin list 3 of 16 </div>",32,,,,,,,,,,,,,,,
html-keyboard-response,326,1123466,null,"<div style=""font-size:60px;"">+</div>",null,,,,,,,,,,,,,,,
html-keyboard-response,327,1123669,null,"<div style=""font-size:42px;"">LAVA</div><img id = ""stim"" ><div class = red_square id = bottomsquare></div>",null,encoding,word_square,,,0,bottomsquare,none,true,,,LAVA,2,,,
html-keyboard-response,328,1123972,null,"<div style=""font-size:42px;"">LAVA</div>",null,,word,LAVA,,,,,,,,,,,,
html-keyboard-response,329,1125475,null,"",null,,word,LAVA,,,,,,,,,,,,
html-keyboard-response,330,1125678,null,"<div style=""font-size:42px;"">HOUND</div><img id = ""stim"" ><div class = red_square id = topsquare></div>",null,encoding,word_square,,,0,topsquare,none,true,,,HOUND,2,,,
html-keyboard-response,331,1125981,null,"<div style=""font-size:42px;"">HOUND</div>",null,,word,HOUND,,,,,,,,,,,,
html-keyboard-response,332,1127484,null,"",null,,word,HOUND,,,,,,,,,,,,
html-keyboard-response,333,1127687,null,"<div style=""font-size:42px;"">FOSSIL</div><img id = ""stim"" ><div class = green_square id = topsquare></div>",null,encoding,word_square,,,1,topsquare,32,true,,,FOSSIL,2,,,
html-keyboard-response,334,1127990,120.20000000298023,"<div style=""font-size:42px;"">FOSSIL</div>",32,,word,FOSSIL,,,,,,,,,,,,
html-keyboard-response,335,1129493,null,"",null,,word,FOSSIL,,,,,,,,,,,,
html-keyboard-response,336,1129696,null,"<div style=""font-size:42px;"">DUSTPAN</div><img id = ""stim"" ><div class = red_square id = bottomsquare></div>",null,encoding,word_square,,,0,bottomsquare,none,true,,,DUSTPAN,2,,,
html-keyboard-response,337,1130000,null,"<div style=""font-size:42px;"">DUSTPAN</div>",null,,word,DUSTPAN,,,,,,,,,,,,
html-keyboard-response,338,1131503,null,"",null,,word,DUSTPAN,,,,,,,,,,,,
html-keyboard-response,339,1131706,null,"<div style=""font-size:42px;"">RAISIN</div><img id = ""stim"" ><div class = green_square id = bottomsquare></div>",null,encoding,word_square,,,1,bottomsquare,32,true,,,RAISIN,2,,,
html-keyboard-response,340,1132009,139.70000000298023,"<div style=""font-size:42px;"">RAISIN</div>",32,,word,RAISIN,,,,,,,,,,,,
html-keyboard-response,341,1133513,null,"",null,,word,RAISIN,,,,,,,,,,,,
html-keyboard-response,342,1133716,null,"<div style=""font-size:42px;"">PLIERS</div><img id = ""stim"" ><div class = red_square id = topsquare></div>",null,encoding,word_square,,,0,topsquare,none,true,,,PLIERS,2,,,
html-keyboard-response,343,1134021,null,"<div style=""font-size:42px;"">PLIERS</div>",null,,word,PLIERS,,,,,,,,,,,,
html-keyboard-response,344,1135528,null,"",null,,word,PLIERS,,,,,,,,,,,,
html-keyboard-response,345,1135732,null,"<div style=""font-size:42px;"">CHAUFFEUR</div><img id = ""stim"" ><div class = red_square id = bottomsquare></div>",null,encoding,word_square,,,0,bottomsquare,none,true,,,CHAUFFEUR,2,,,
html-keyboard-response,346,1136035,null,"<div style=""font-size:42px;"">CHAUFFEUR</div>",null,,word,CHAUFFEUR,,,,,,,,,,,,
html-keyboard-response,347,1137539,null,"",null,,word,CHAUFFEUR,,,,,,,,,,,,
html-keyboard-response,348,1137742,null,"<div style=""font-size:42px;"">GIFT</div><img id = ""stim"" ><div class = green_square id = topsquare></div>",null,encoding,word_square,,,1,topsquare,32,true,,,GIFT,2,,,
html-keyboard-response,349,1138047,112.5,"<div style=""font-size:42px;"">GIFT</div>",32,,word,GIFT,,,,,,,,,,,,
html-keyboard-response,350,1139550,null,"",null,,word,GIFT,,,,,,,,,,,,
html-keyboard-response,351,1139753,null,"<div style=""font-size:42px;"">FRAME</div><img id = ""stim"" ><div class = green_square id = bottomsquare></div>",null,encoding,word_square,,,1,bottomsquare,32,true,,,FRAME,2,,,
html-keyboard-response,352,1140056,154.29999999701977,"<div style=""font-size:42px;"">FRAME</div>",32,,word,FRAME,,,,,,,,,,,,
html-keyboard-response,353,1141559,null,"",null,,word,FRAME,,,,,,,,,,,,
html-keyboard-response,354,1141763,null,"<div style=""font-size:42px;"">SOFTBALL</div><img id = ""stim"" ><div class = red_square id = topsquare></div>",null,encoding,word_square,,,0,topsquare,none,true,,,SOFTBALL,2,,,
html-keyboard-response,355,1142066,null,"<div style=""font-size:42px;"">SOFTBALL</div>",null,,word,SOFTBALL,,,,,,,,,,,,
html-keyboard-response,356,1143569,null,"",null,,word,SOFTBALL,,,,,,,,,,,,
html-keyboard-response,357,1143772,null,"<div style=""font-size:42px;"">LACE</div><img id = ""stim"" ><div class = red_square id = bottomsquare></div>",null,encoding,word_square,,,0,bottomsquare,none,true,,,LACE,2,,,
html-keyboard-response,358,1144075,null,"<div style=""font-size:42px;"">LACE</div>",null,,word,LACE,,,,,,,,,,,,
html-keyboard-response,359,1145580,null,"",null,,word,LACE,,,,,,,,,,,,
html-keyboard-response,360,1145789,null,"<div style=""font-size:42px;"">SNORKEL</div><img id = ""stim"" ><div class = green_square id = topsquare></div>",null,encoding,word_square,,,1,topsquare,32,true,,,SNORKEL,2,,,
html-keyboard-response,361,1146092,79.79999999701977,"<div style=""font-size:42px;"">SNORKEL</div>",32,,word,SNORKEL,,,,,,,,,,,,
html-keyboard-response,362,1147595,null,"",null,,word,SNORKEL,,,,,,,,,,,,
html-keyboard-response,363,1147799,null,"<div style=""font-size:42px;"">CRICKET</div><img id = ""stim"" ><div class = green_square id = bottomsquare></div>",null,encoding,word_square,,,1,bottomsquare,32,true,,,CRICKET,2,,,
html-keyboard-response,364,1148103,117.40000000596046,"<div style=""font-size:42px;"">CRICKET</div>",32,,word,CRICKET,,,,,,,,,,,,
html-keyboard-response,365,1149606,null,"",null,,word,CRICKET,,,,,,,,,,,,
html-keyboard-response,366,1149811,null,"<div style=""font-size:42px;"">HEART</div><img id = ""stim"" ><div class = red_square id = topsquare></div>",null,encoding,word_square,,,0,topsquare,none,true,,,HEART,2,,,
html-keyboard-response,367,1150114,null,"<div style=""font-size:42px;"">HEART</div>",null,,word,HEART,,,,,,,,,,,,
html-keyboard-response,368,1151618,null,"",null,,word,HEART,,,,,,,,,,,,
html-keyboard-response,369,1151821,null,"<div style=""font-size:42px;"">DONOR</div><img id = ""stim"" ><div class = green_square id = topsquare></div>",null,encoding,word_square,,,1,topsquare,32,true,,,DONOR,2,,,
html-keyboard-response,370,1152124,133.5,"<div style=""font-size:42px;"">DONOR</div>",32,,word,DONOR,,,,,,,,,,,,
html-keyboard-response,371,1153627,null,"",null,,word,DONOR,,,,,,,,,,,,
html-keyboard-response,372,1153830,null,"<div style=""font-size:42px;"">PORTRAIT</div><img id = ""stim"" ><div class = green_square id = bottomsquare></div>",null,encoding,word_square,,,1,bottomsquare,32,true,,,PORTRAIT,2,,,
html-keyboard-response,373,1154133,190,"<div style=""font-size:42px;"">PORTRAIT</div>",32,,word,PORTRAIT,,,,,,,,,,,,
html-keyboard-response,374,1155636,null,"",null,,word,PORTRAIT,,,,,,,,,,,,
call-function,375,1155638,,"",,,,,,,,,,,,,,,,
html-keyboard-response,376,1155740,null,"",null,,,,,,,,,,,,,,,
math-period,377,1159605,7485.70000000298,"",,,,,,,,,,,4,,,,,
html-keyboard-response,378,1159708,null,"",null,,,,,,,,,,,,,,,
math-period,379,1160756,1969.5000000149012,"",,,,,,,,,,,4,,,,,
html-keyboard-response,380,1160859,null,"",null,,,,,,,,,,,,,,,
math-period,381,1162988,4118.29999999702,"",,,,,,,,,,,5,,,,,
html-keyboard-response,382,1163092,null,"",null,,,,,,,,,,,,,,,
math-period,383,1164210,2142.500000014901,"",,,,,,,,,,,5,,,,,
html-keyboard-response,384,1164313,null,"",null,,,,,,,,,,,,,,,
math-period,385,1165387,2069.0999999940395,"",,,,,,,,,,,5,,,,,
html-keyboard-response,386,1165490,null,"",null,,,,,,,,,,,,,,,
math-period,387,1167450,3809.9000000059605,"",,,,,,,,,,,4,,,,,
html-keyboard-response,388,1167553,null,"",null,,,,,,,,,,,,,,,
math-period,389,1169681,4173.699999988079,"",,,,,,,,,,,3,,,,,
html-keyboard-response,390,1169783,null,"",null,,,,,,,,,,,,,,,
math-period,391,1172564,5481.79999999702,"",,,,,,,,,,,4,,,,,
html-keyboard-response,392,1172673,null,"",null,,,,,,,,,,,,,,,
math-period,393,1176051,6625.499999985099,"",,,,,,,,,,,3,,,,,
html-keyboard-response,394,1176154,null,"",null,,,,,,,,,,,,,,,
math-period,395,1177787,3179.300000011921,"",,,,,,,,,,,4,,,,,
html-keyboard-response,396,1177890,null,"",null,,,,,,,,,,,,,,,
math-period,397,1178704,1552.9000000059605,"",,,,,,,,,,,4,,,,,
html-keyboard-response,398,1178807,null,"",null,,,,,,,,,,,,,,,
math-period,399,1179641,null,"",,,,,,,,,,,,,,,,
html-keyboard-response,400,1180644,null,"Recall Period!",null,,,,,,,,,,,,,,,
call-function,401,1180645,,"",,,,,,,,,,,,,,,,
html-keyboard-response,402,1180748,null,"",null,,,,,,,,,,,,,,,
recall-period,403,1187413,30850.499999970198,"",,,,,,,,,,,lava,,,,,
html-keyboard-response,404,1187516,null,"",null,,,,,,,,,,,,,,,
recall-period,405,1189047,6919.699999958277,"",,,,,,,,,,,hound,,,,,
html-keyboard-response,406,1189150,null,"",null,,,,,,,,,,,,,,,
recall-period,407,1190335,4644.599999979138,"",,,,,,,,,,,fossil,,,,,
html-keyboard-response,408,1190438,null,"",null,,,,,,,,,,,,,,,
recall-period,409,1199833,77335.69999998808,"",,,,,,,,,,,portrait,,,,,
html-keyboard-response,410,1199936,null,"",null,,,,,,,,,,,,,,,
recall-period,411,1217019,145241.0000000149,"",,,,,,,,,,,struggle,,,,,
html-keyboard-response,412,1217122,null,"",null,,,,,,,,,,,,,,,
recall-period,413,1223813,31568.200000047684,"",,,,,,,,,,,hair,,,,,
html-keyboard-response,414,1223916,null,"",null,,,,,,,,,,,,,,,
recall-period,415,1232018,59312.799999952316,"",,,,,,,,,,,dustpan,,,,,
html-keyboard-response,416,1232120,null,"",null,,,,,,,,,,,,,,,
recall-period,417,1255647,null,"",,,,,,,,,,,,,,,,
html-keyboard-response,418,1256150,null,"Time's Up!",null,,,,,,,,,,,,,,,
html-keyboard-response,419,1256876,723.4000000059605,"<p> Good job! You have responded correctly to 100% of the trials. </p>
                      <p>Be sure to only press the spacebar if you see a GREEN square, and please keep your accuracy above 80%.</p>
                      <p> Press any key to continue the experiment. </p>",32,,,,,,,,,,,,,,,
html-keyboard-response,420,1257682,803.2000000029802,"<div style=""font-size:48px;"">Press any key to begin list 4 of 16 </div>",32,,,,,,,,,,,,,,,
html-keyboard-response,421,1260185,null,"<div style=""font-size:60px;"">+</div>",null,,,,,,,,,,,,,,,
html-keyboard-response,422,1260389,null,"<div style=""font-size:42px;"">NICKEL</div><img id = ""stim"" ><div class = green_square id = bottomsquare></div>",null,encoding,word_square,,,1,bottomsquare,32,true,,,NICKEL,3,,,
html-keyboard-response,423,1260692,232.3999999910593,"<div style=""font-size:42px;"">NICKEL</div>",32,,word,NICKEL,,,,,,,,,,,,
html-keyboard-response,424,1262195,null,"",null,,word,NICKEL,,,,,,,,,,,,
html-keyboard-response,425,1262399,null,"<div style=""font-size:42px;"">FLEET</div><img id = ""stim"" ><div class = green_square id = topsquare></div>",null,encoding,word_square,,,1,topsquare,32,true,,,FLEET,3,,,
html-keyboard-response,426,1262702,158.20000000298023,"<div style=""font-size:42px;"">FLEET</div>",32,,word,FLEET,,,,,,,,,,,,
html-keyboard-response,427,1264205,null,"",null,,word,FLEET,,,,,,,,,,,,
html-keyboard-response,428,1264409,null,"<div style=""font-size:42px;"">CASTLE</div><img id = ""stim"" ><div class = red_square id = topsquare></div>",null,encoding,word_square,,,0,topsquare,none,true,,,CASTLE,3,,,
html-keyboard-response,429,1264712,null,"<div style=""font-size:42px;"">CASTLE</div>",null,,word,CASTLE,,,,,,,,,,,,
html-keyboard-response,430,1266215,null,"",null,,word,CASTLE,,,,,,,,,,,,
html-keyboard-response,431,1266421,null,"<div style=""font-size:42px;"">GAZELLE</div><img id = ""stim"" ><div class = green_square id = bottomsquare></div>",null,encoding,word_square,,,1,bottomsquare,32,true,,,GAZELLE,3,,,
html-keyboard-response,432,1266723,137,"<div style=""font-size:42px;"">GAZELLE</div>",32,,word,GAZELLE,,,,,,,,,,,,
html-keyboard-response,433,1268227,null,"",null,,word,GAZELLE,,,,,,,,,,,,
html-keyboard-response,434,1268431,null,"<div style=""font-size:42px;"">HONEY</div><img id = ""stim"" ><div class = green_square id = topsquare></div>",null,encoding,word_square,,,1,topsquare,32,true,,,HONEY,3,,,
html-keyboard-response,435,1268733,144.40000000596046,"<div style=""font-size:42px;"">HONEY</div>",32,,word,HONEY,,,,,,,,,,,,
html-keyboard-response,436,1270237,null,"",null,,word,HONEY,,,,,,,,,,,,
html-keyboard-response,437,1270441,null,"<div style=""font-size:42px;"">WAX</div><img id = ""stim"" ><div class = red_square id = bottomsquare></div>",null,encoding,word_square,,,0,bottomsquare,none,true,,,WAX,3,,,
html-keyboard-response,438,1270745,null,"<div style=""font-size:42px;"">WAX</div>",null,,word,WAX,,,,,,,,,,,,
html-keyboard-response,439,1272248,null,"",null,,word,WAX,,,,,,,,,,,,
html-keyboard-response,440,1272460,null,"<div style=""font-size:42px;"">DAUGHTER</div><img id = ""stim"" ><div class = red_square id = topsquare></div>",null,encoding,word_square,,,0,topsquare,none,true,,,DAUGHTER,3,,,
html-keyboard-response,441,1272763,null,"<div style=""font-size:42px;"">DAUGHTER</div>",null,,word,DAUGHTER,,,,,,,,,,,,
html-keyboard-response,442,1274267,null,"",null,,word,DAUGHTER,,,,,,,,,,,,
html-keyboard-response,443,1274471,null,"<div style=""font-size:42px;"">CREATURE</div><img id = ""stim"" ><div class = green_square id = bottomsquare></div>",null,encoding,word_square,,,1,bottomsquare,32,true,,,CREATURE,3,,,
html-keyboard-response,444,1274774,129,"<div style=""font-size:42px;"">CREATURE</div>",32,,word,CREATURE,,,,,,,,,,,,
html-keyboard-response,445,1276277,null,"",null,,word,CREATURE,,,,,,,,,,,,
html-keyboard-response,446,1276484,null,"<div style=""font-size:42px;"">ELK</div><img id = ""stim"" ><div class = green_square id = topsquare></div>",null,encoding,word_square,,,1,topsquare,32,true,,,ELK,3,,,
html-keyboard-response,447,1276791,126.20000000298023,"<div style=""font-size:42px;"">ELK</div>",32,,word,ELK,,,,,,,,,,,,
html-keyboard-response,448,1278300,null,"",null,,word,ELK,,,,,,,,,,,,
html-keyboard-response,449,1278504,null,"<div style=""font-size:42px;"">SLACKS</div><img id = ""stim"" ><div class = red_square id = bottomsquare></div>",null,encoding,word_square,,,0,bottomsquare,none,true,,,SLACKS,3,,,
html-keyboard-response,450,1278806,null,"<div style=""font-size:42px;"">SLACKS</div>",null,,word,SLACKS,,,,,,,,,,,,
html-keyboard-response,451,1280310,null,"",null,,word,SLACKS,,,,,,,,,,,,
html-keyboard-response,452,1280513,null,"<div style=""font-size:42px;"">WORKER</div><img id = ""stim"" ><div class = red_square id = topsquare></div>",null,encoding,word_square,,,0,topsquare,none,true,,,WORKER,3,,,
html-keyboard-response,453,1280816,null,"<div style=""font-size:42px;"">WORKER</div>",null,,word,WORKER,,,,,,,,,,,,
html-keyboard-response,454,1282319,null,"",null,,word,WORKER,,,,,,,,,,,,
html-keyboard-response,455,1282522,null,"<div style=""font-size:42px;"">BRIDE</div><img id = ""stim"" ><div class = green_square id = bottomsquare></div>",null,encoding,word_square,,,1,bottomsquare,32,true,,,BRIDE,3,,,
html-keyboard-response,456,1282826,110.09999999403954,"<div style=""font-size:42px;"">BRIDE</div>",32,,word,BRIDE,,,,,,,,,,,,
html-keyboard-response,457,1284329,null,"",null,,word,BRIDE,,,,,,,,,,,,
html-keyboard-response,458,1284537,null,"<div style=""font-size:42px;"">BANK</div><img id = ""stim"" ><div class = red_square id = bottomsquare></div>",null,encoding,word_square,,,0,bottomsquare,none,true,,,BANK,3,,,
html-keyboard-response,459,1284841,null,"<div style=""font-size:42px;"">BANK</div>",null,,word,BANK,,,,,,,,,,,,
html-keyboard-response,460,1286344,null,"",null,,word,BANK,,,,,,,,,,,,
html-keyboard-response,461,1286547,null,"<div style=""font-size:42px;"">ATLAS</div><img id = ""stim"" ><div class = green_square id = topsquare></div>",null,encoding,word_square,,,1,topsquare,32,true,,,ATLAS,3,,,
html-keyboard-response,462,1286850,104.70000000298023,"<div style=""font-size:42px;"">ATLAS</div>",32,,word,ATLAS,,,,,,,,,,,,
html-keyboard-response,463,1288353,null,"",null,,word,ATLAS,,,,,,,,,,,,
html-keyboard-response,464,1288557,null,"<div style=""font-size:42px;"">WORLD</div><img id = ""stim"" ><div class = red_square id = topsquare></div>",null,encoding,word_square,,,0,topsquare,none,true,,,WORLD,3,,,
html-keyboard-response,465,1288860,null,"<div style=""font-size:42px;"">WORLD</div>",null,,word,WORLD,,,,,,,,,,,,
html-keyboard-response,466,1290363,null,"",null,,word,WORLD,,,,,,,,,,,,
html-keyboard-response,467,1290566,null,"<div style=""font-size:42px;"">LAPEL</div><img id = ""stim"" ><div class = red_square id = bottomsquare></div>",null,encoding,word_square,,,0,bottomsquare,none,true,,,LAPEL,3,,,
html-keyboard-response,468,1290869,null,"<div style=""font-size:42px;"">LAPEL</div>",null,,word,LAPEL,,,,,,,,,,,,
html-keyboard-response,469,1292373,null,"",null,,word,LAPEL,,,,,,,,,,,,
call-function,470,1292376,,"",,,,,,,,,,,,,,,,
html-keyboard-response,471,1292478,null,"",null,,,,,,,,,,,,,,,
math-period,472,1295163,5240.29999999702,"",,,,,,,,,,,5,,,,,
html-keyboard-response,473,1295267,null,"",null,,,,,,,,,,,,,,,
math-period,474,1297870,5123.79999999702,"",,,,,,,,,,,3,,,,,
html-keyboard-response,475,1297973,null,"",null,,,,,,,,,,,,,,,
math-period,476,1300541,5044.499999985099,"",,,,,,,,,,,1,,,,,
html-keyboard-response,477,1300644,null,"",null,,,,,,,,,,,,,,,
math-period,478,1302639,3919.000000014901,"",,,,,,,,,,,5,,,,,
html-keyboard-response,479,1302742,null,"",null,,,,,,,,,,,,,,,
math-period,480,1304843,4138.9000000059605,"",,,,,,,,,,,2,,,,,
html-keyboard-response,481,1304946,null,"",null,,,,,,,,,,,,,,,
math-period,482,1306644,3346.7000000178814,"",,,,,,,,,,,4,,,,,
html-keyboard-response,483,1306747,null,"",null,,,,,,,,,,,,,,,
math-period,484,1308730,3906.2999999970198,"",,,,,,,,,,,6,,,,,
html-keyboard-response,485,1308837,null,"",null,,,,,,,,,,,,,,,
math-period,486,1311366,4983.5999999940395,"",,,,,,,,,,,1,,,,,
html-keyboard-response,487,1311469,null,"",null,,,,,,,,,,,,,,,
math-period,488,1313589,4173.899999991059,"",,,,,,,,,,,5,,,,,
html-keyboard-response,489,1313693,null,"",null,,,,,,,,,,,,,,,
math-period,490,1316241,5039.5,"",,,,,,,,,,,4,,,,,
html-keyboard-response,491,1316344,null,"",null,,,,,,,,,,,,,,,
math-period,492,1316376,null,"",,,,,,,,,,,,,,,,
html-keyboard-response,493,1317379,null,"Recall Period!",null,,,,,,,,,,,,,,,
call-function,494,1317381,,"",,,,,,,,,,,,,,,,
html-keyboard-response,495,1317485,null,"",null,,,,,,,,,,,,,,,
recall-period,496,1318778,5166.79999999702,"",,,,,,,,,,,atlas,,,,,
html-keyboard-response,497,1318881,null,"",null,,,,,,,,,,,,,,,
recall-period,498,1320079,4087.8000000417233,"",,,,,,,,,,,world,,,,,
html-keyboard-response,499,1320181,null,"",null,,,,,,,,,,,,,,,
recall-period,500,1328399,61248.10000003874,"",,,,,,,,,,,gazelle,,,,,
html-keyboard-response,501,1328502,null,"",null,,,,,,,,,,,,,,,
recall-period,502,1382280,372887.2999999523,"",,,,,,,,,,,missle,,,,,
html-keyboard-response,503,1382386,null,"",null,,,,,,,,,,,,,,,
recall-period,504,1392386,null,"",,,,,,,,,,,,,,,,
html-keyboard-response,505,1392894,null,"Time's Up!",null,,,,,,,,,,,,,,,
html-keyboard-response,506,1393576,678.0999999940395,"<p> Good job! You have responded correctly to 100% of the trials. </p>
                      <p>Be sure to only press the spacebar if you see a GREEN square, and please keep your accuracy above 80%.</p>
                      <p> Press any key to continue the experiment. </p>",32,,,,,,,,,,,,,,,
html-keyboard-response,507,1394586,1005.1000000089407,"<div style=""font-size:48px;"">Press any key to begin list 5 of 16 </div>",32,,,,,,,,,,,,,,,
html-keyboard-response,508,1397089,null,"<div style=""font-size:60px;"">+</div>",null,,,,,,,,,,,,,,,
html-keyboard-response,509,1397292,null,"<div style=""font-size:42px;"">BALLOON</div><img id = ""stim"" ><div class = green_square id = topsquare></div>",null,encoding,word_square,,,1,topsquare,32,true,,,BALLOON,4,,,
html-keyboard-response,510,1397595,null,"<div style=""font-size:42px;"">BALLOON</div>",null,,word,BALLOON,,,,,,,,,,,,
html-keyboard-response,511,1399098,19.400000005960464,"",32,,word,BALLOON,,,,,,,,,,,,
html-keyboard-response,512,1399301,null,"<div style=""font-size:42px;"">MARKET</div><img id = ""stim"" ><div class = red_square id = bottomsquare></div>",null,encoding,word_square,,,0,bottomsquare,none,true,,,MARKET,4,,,
html-keyboard-response,513,1399604,null,"<div style=""font-size:42px;"">MARKET</div>",null,,word,MARKET,,,,,,,,,,,,
html-keyboard-response,514,1401107,null,"",null,,word,MARKET,,,,,,,,,,,,
html-keyboard-response,515,1401310,null,"<div style=""font-size:42px;"">SCALPEL</div><img id = ""stim"" ><div class = red_square id = topsquare></div>",null,encoding,word_square,,,0,topsquare,none,true,,,SCALPEL,4,,,
html-keyboard-response,516,1401623,null,"<div style=""font-size:42px;"">SCALPEL</div>",null,,word,SCALPEL,,,,,,,,,,,,
html-keyboard-response,517,1403126,null,"",null,,word,SCALPEL,,,,,,,,,,,,
html-keyboard-response,518,1403330,null,"<div style=""font-size:42px;"">GLASSES</div><img id = ""stim"" ><div class = green_square id = bottomsquare></div>",null,encoding,word_square,,,1,bottomsquare,32,true,,,GLASSES,4,,,
html-keyboard-response,519,1403636,182.3999999910593,"<div style=""font-size:42px;"">GLASSES</div>",32,,word,GLASSES,,,,,,,,,,,,
html-keyboard-response,520,1405140,null,"",null,,word,GLASSES,,,,,,,,,,,,
html-keyboard-response,521,1405347,null,"<div style=""font-size:42px;"">COBRA</div><img id = ""stim"" ><div class = red_square id = bottomsquare></div>",null,encoding,word_square,,,0,bottomsquare,none,true,,,COBRA,4,,,
html-keyboard-response,522,1405652,null,"<div style=""font-size:42px;"">COBRA</div>",null,,word,COBRA,,,,,,,,,,,,
html-keyboard-response,523,1407159,null,"",null,,word,COBRA,,,,,,,,,,,,
html-keyboard-response,524,1407365,null,"<div style=""font-size:42px;"">SALT</div><img id = ""stim"" ><div class = red_square id = topsquare></div>",null,encoding,word_square,,,0,topsquare,none,true,,,SALT,4,,,
html-keyboard-response,525,1407671,null,"<div style=""font-size:42px;"">SALT</div>",null,,word,SALT,,,,,,,,,,,,
html-keyboard-response,526,1409174,null,"",null,,word,SALT,,,,,,,,,,,,
html-keyboard-response,527,1409377,null,"<div style=""font-size:42px;"">PARSLEY</div><img id = ""stim"" ><div class = green_square id = topsquare></div>",null,encoding,word_square,,,1,topsquare,32,true,,,PARSLEY,4,,,
html-keyboard-response,528,1409680,136.20000000298023,"<div style=""font-size:42px;"">PARSLEY</div>",32,,word,PARSLEY,,,,,,,,,,,,
html-keyboard-response,529,1411184,null,"",null,,word,PARSLEY,,,,,,,,,,,,
html-keyboard-response,530,1411388,null,"<div style=""font-size:42px;"">OZONE</div><img id = ""stim"" ><div class = red_square id = bottomsquare></div>",null,encoding,word_square,,,0,bottomsquare,none,true,,,OZONE,4,,,
html-keyboard-response,531,1411690,null,"<div style=""font-size:42px;"">OZONE</div>",null,,word,OZONE,,,,,,,,,,,,
html-keyboard-response,532,1413193,null,"",null,,word,OZONE,,,,,,,,,,,,
html-keyboard-response,533,1413399,null,"<div style=""font-size:42px;"">SIRLOIN</div><img id = ""stim"" ><div class = green_square id = bottomsquare></div>",null,encoding,word_square,,,1,bottomsquare,32,true,,,SIRLOIN,4,,,
html-keyboard-response,534,1413702,123.29999999701977,"<div style=""font-size:42px;"">SIRLOIN</div>",32,,word,SIRLOIN,,,,,,,,,,,,
html-keyboard-response,535,1415205,null,"",null,,word,SIRLOIN,,,,,,,,,,,,
html-keyboard-response,536,1415409,null,"<div style=""font-size:42px;"">PIANO</div><img id = ""stim"" ><div class = green_square id = topsquare></div>",null,encoding,word_square,,,1,topsquare,32,true,,,PIANO,4,,,
html-keyboard-response,537,1415716,null,"<div style=""font-size:42px;"">PIANO</div>",null,,word,PIANO,,,,,,,,,,,,
html-keyboard-response,538,1417219,5.299999997019768,"",32,,word,PIANO,,,,,,,,,,,,
html-keyboard-response,539,1417423,null,"<div style=""font-size:42px;"">KIDNEY</div><img id = ""stim"" ><div class = red_square id = topsquare></div>",null,encoding,word_square,,,0,topsquare,none,true,,,KIDNEY,4,,,
html-keyboard-response,540,1417726,null,"<div style=""font-size:42px;"">KIDNEY</div>",null,,word,KIDNEY,,,,,,,,,,,,
html-keyboard-response,541,1419230,null,"",null,,word,KIDNEY,,,,,,,,,,,,
html-keyboard-response,542,1419435,null,"<div style=""font-size:42px;"">ADULT</div><img id = ""stim"" ><div class = red_square id = bottomsquare></div>",null,encoding,word_square,,,0,bottomsquare,none,true,,,ADULT,4,,,
html-keyboard-response,543,1419738,null,"<div style=""font-size:42px;"">ADULT</div>",null,,word,ADULT,,,,,,,,,,,,
html-keyboard-response,544,1421241,null,"",null,,word,ADULT,,,,,,,,,,,,
html-keyboard-response,545,1421444,null,"<div style=""font-size:42px;"">BUTLER</div><img id = ""stim"" ><div class = green_square id = bottomsquare></div>",null,encoding,word_square,,,1,bottomsquare,32,true,,,BUTLER,4,,,
html-keyboard-response,546,1421748,172.5,"<div style=""font-size:42px;"">BUTLER</div>",32,,word,BUTLER,,,,,,,,,,,,
html-keyboard-response,547,1423254,null,"",null,,word,BUTLER,,,,,,,,,,,,
html-keyboard-response,548,1423459,null,"<div style=""font-size:42px;"">CANYON</div><img id = ""stim"" ><div class = red_square id = topsquare></div>",null,encoding,word_square,,,0,topsquare,none,true,,,CANYON,4,,,
html-keyboard-response,549,1423762,null,"<div style=""font-size:42px;"">CANYON</div>",null,,word,CANYON,,,,,,,,,,,,
html-keyboard-response,550,1425270,null,"",null,,word,CANYON,,,,,,,,,,,,
html-keyboard-response,551,1425476,null,"<div style=""font-size:42px;"">CIGAR</div><img id = ""stim"" ><div class = green_square id = topsquare></div>",null,encoding,word_square,,,1,topsquare,32,true,,,CIGAR,4,,,
html-keyboard-response,552,1425779,168.5,"<div style=""font-size:42px;"">CIGAR</div>",32,,word,CIGAR,,,,,,,,,,,,
html-keyboard-response,553,1427283,null,"",null,,word,CIGAR,,,,,,,,,,,,
html-keyboard-response,554,1427486,null,"<div style=""font-size:42px;"">SPICE</div><img id = ""stim"" ><div class = green_square id = bottomsquare></div>",null,encoding,word_square,,,1,bottomsquare,32,true,,,SPICE,4,,,
html-keyboard-response,555,1427795,129,"<div style=""font-size:42px;"">SPICE</div>",32,,word,SPICE,,,,,,,,,,,,
html-keyboard-response,556,1429299,null,"",null,,word,SPICE,,,,,,,,,,,,
call-function,557,1429300,,"",,,,,,,,,,,,,,,,
html-keyboard-response,558,1429403,null,"",null,,,,,,,,,,,,,,,
math-period,559,1432342,5622.800000011921,"",,,,,,,,,,,5,,,,,
html-keyboard-response,560,1432445,null,"",null,,,,,,,,,,,,,,,
math-period,561,1435399,5832.5999999940395,"",,,,,,,,,,,1,,,,,
html-keyboard-response,562,1435503,null,"",null,,,,,,,,,,,,,,,
math-period,563,1437895,4693.499999985099,"",,,,,,,,,,,2,,,,,
html-keyboard-response,564,1437998,null,"",null,,,,,,,,,,,,,,,
math-period,565,1440219,4368.4000000059605,"",,,,,,,,,,,4,,,,,
html-keyboard-response,566,1440321,null,"",null,,,,,,,,,,,,,,,
math-period,567,1441503,2318.2000000029802,"",,,,,,,,,,,4,,,,,
html-keyboard-response,568,1441606,null,"",null,,,,,,,,,,,,,,,
math-period,569,1443134,2982.1000000089407,"",,,,,,,,,,,6,,,,,
html-keyboard-response,570,1443239,null,"",null,,,,,,,,,,,,,,,
math-period,571,1444929,3316.6000000089407,"",,,,,,,,,,,5,,,,,
html-keyboard-response,572,1445032,null,"",null,,,,,,,,,,,,,,,
math-period,573,1447197,4281.70000000298,"",,,,,,,,,,,1,,,,,
html-keyboard-response,574,1447301,null,"",null,,,,,,,,,,,,,,,
math-period,575,1452311,9958.799999982119,"",,,,,,,,,,,0,,,,,
html-keyboard-response,576,1452414,null,"",null,,,,,,,,,,,,,,,
math-period,577,1453305,null,"",,,,,,,,,,,,,,,,
html-keyboard-response,578,1454307,null,"Recall Period!",null,,,,,,,,,,,,,,,
call-function,579,1454309,,"",,,,,,,,,,,,,,,,
html-keyboard-response,580,1454411,null,"",null,,,,,,,,,,,,,,,
recall-period,581,1460190,40302.70000000298,"",,,,,,,,,,,balloon,,,,,
html-keyboard-response,582,1460294,null,"",null,,,,,,,,,,,,,,,
recall-period,583,1464554,23321.400000035763,"",,,,,,,,,,,spice,,,,,
html-keyboard-response,584,1464656,null,"",null,,,,,,,,,,,,,,,
recall-period,585,1468567,24620.900000035763,"",,,,,,,,,,,sirloin,,,,,
html-keyboard-response,586,1468671,null,"",null,,,,,,,,,,,,,,,
recall-period,587,1472810,25294.000000074506,"",,,,,,,,,,,scalpel,,,,,
html-keyboard-response,588,1472915,null,"",null,,,,,,,,,,,,,,,
recall-period,589,1496102,135160.80000004172,"",,,,,,,,,,,piano,,,,,
html-keyboard-response,590,1496206,null,"",null,,,,,,,,,,,,,,,
recall-period,591,1529313,null,"",,,,,,,,,,,,,,,,
html-keyboard-response,592,1529821,null,"Time's Up!",null,,,,,,,,,,,,,,,
html-keyboard-response,593,1531596,1762.6000000089407,"<p> Good job! You have responded correctly to 100% of the trials. </p>
                      <p>Be sure to only press the spacebar if you see a GREEN square, and please keep your accuracy above 80%.</p>
                      <p> Press any key to continue the experiment. </p>",32,,,,,,,,,,,,,,,
html-keyboard-response,594,1532440,841.1000000089407,"<div style=""font-size:48px;"">Press any key to begin list 6 of 16 </div>",32,,,,,,,,,,,,,,,
html-keyboard-response,595,1534942,null,"<div style=""font-size:60px;"">+</div>",null,,,,,,,,,,,,,,,
html-keyboard-response,596,1535146,null,"<div style=""font-size:42px;"">BEAKER</div><img id = ""stim"" ><div class = green_square id = bottomsquare></div>",null,encoding,word_square,,,1,bottomsquare,32,true,,,BEAKER,5,,,
html-keyboard-response,597,1535449,285.90000000596046,"<div style=""font-size:42px;"">BEAKER</div>",32,,word,BEAKER,,,,,,,,,,,,
html-keyboard-response,598,1536952,null,"",null,,word,BEAKER,,,,,,,,,,,,
html-keyboard-response,599,1537159,null,"<div style=""font-size:42px;"">BOUQUET</div><img id = ""stim"" ><div class = green_square id = topsquare></div>",null,encoding,word_square,,,1,topsquare,32,true,,,BOUQUET,5,,,
html-keyboard-response,600,1537463,217.5,"<div style=""font-size:42px;"">BOUQUET</div>",32,,word,BOUQUET,,,,,,,,,,,,
html-keyboard-response,601,1538966,null,"",null,,word,BOUQUET,,,,,,,,,,,,
html-keyboard-response,602,1539169,null,"<div style=""font-size:42px;"">TWIG</div><img id = ""stim"" ><div class = red_square id = topsquare></div>",null,encoding,word_square,,,0,topsquare,none,true,,,TWIG,5,,,
html-keyboard-response,603,1539473,null,"<div style=""font-size:42px;"">TWIG</div>",null,,word,TWIG,,,,,,,,,,,,
html-keyboard-response,604,1540976,null,"",null,,word,TWIG,,,,,,,,,,,,
html-keyboard-response,605,1541180,null,"<div style=""font-size:42px;"">SHRUB</div><img id = ""stim"" ><div class = green_square id = bottomsquare></div>",null,encoding,word_square,,,1,bottomsquare,32,true,,,SHRUB,5,,,
html-keyboard-response,606,1541483,201,"<div style=""font-size:42px;"">SHRUB</div>",32,,word,SHRUB,,,,,,,,,,,,
html-keyboard-response,607,1542987,null,"",null,,word,SHRUB,,,,,,,,,,,,
html-keyboard-response,608,1543191,null,"<div style=""font-size:42px;"">BASKET</div><img id = ""stim"" ><div class = red_square id = bottomsquare></div>",null,encoding,word_square,,,0,bottomsquare,none,true,,,BASKET,5,,,
html-keyboard-response,609,1543495,null,"<div style=""font-size:42px;"">BASKET</div>",null,,word,BASKET,,,,,,,,,,,,
html-keyboard-response,610,1544998,null,"",null,,word,BASKET,,,,,,,,,,,,
html-keyboard-response,611,1545207,null,"<div style=""font-size:42px;"">FEMALE</div><img id = ""stim"" ><div class = red_square id = topsquare></div>",null,encoding,word_square,,,0,topsquare,none,true,,,FEMALE,5,,,
html-keyboard-response,612,1545526,null,"<div style=""font-size:42px;"">FEMALE</div>",null,,word,FEMALE,,,,,,,,,,,,
html-keyboard-response,613,1547033,null,"",null,,word,FEMALE,,,,,,,,,,,,
html-keyboard-response,614,1547240,null,"<div style=""font-size:42px;"">CABOOSE</div><img id = ""stim"" ><div class = green_square id = topsquare></div>",null,encoding,word_square,,,1,topsquare,32,true,,,CABOOSE,5,,,
html-keyboard-response,615,1547543,162.20000000298023,"<div style=""font-size:42px;"">CABOOSE</div>",32,,word,CABOOSE,,,,,,,,,,,,
html-keyboard-response,616,1549047,null,"",null,,word,CABOOSE,,,,,,,,,,,,
html-keyboard-response,617,1549252,null,"<div style=""font-size:42px;"">NEUTRON</div><img id = ""stim"" ><div class = green_square id = bottomsquare></div>",null,encoding,word_square,,,1,bottomsquare,32,true,,,NEUTRON,5,,,
html-keyboard-response,618,1549555,110.29999999701977,"<div style=""font-size:42px;"">NEUTRON</div>",32,,word,NEUTRON,,,,,,,,,,,,
html-keyboard-response,619,1551058,null,"",null,,word,NEUTRON,,,,,,,,,,,,
html-keyboard-response,620,1551263,null,"<div style=""font-size:42px;"">FIREMAN</div><img id = ""stim"" ><div class = red_square id = bottomsquare></div>",null,encoding,word_square,,,0,bottomsquare,none,true,,,FIREMAN,5,,,
html-keyboard-response,621,1551570,null,"<div style=""font-size:42px;"">FIREMAN</div>",null,,word,FIREMAN,,,,,,,,,,,,
html-keyboard-response,622,1553078,null,"",null,,word,FIREMAN,,,,,,,,,,,,
html-keyboard-response,623,1553292,null,"<div style=""font-size:42px;"">HAMMOCK</div><img id = ""stim"" ><div class = green_square id = topsquare></div>",null,encoding,word_square,,,1,topsquare,32,true,,,HAMMOCK,5,,,
html-keyboard-response,624,1553597,119,"<div style=""font-size:42px;"">HAMMOCK</div>",32,,word,HAMMOCK,,,,,,,,,,,,
html-keyboard-response,625,1555101,null,"",null,,word,HAMMOCK,,,,,,,,,,,,
html-keyboard-response,626,1555304,null,"<div style=""font-size:42px;"">CRAB</div><img id = ""stim"" ><div class = red_square id = topsquare></div>",null,encoding,word_square,,,0,topsquare,none,true,,,CRAB,5,,,
html-keyboard-response,627,1555607,null,"<div style=""font-size:42px;"">CRAB</div>",null,,word,CRAB,,,,,,,,,,,,
html-keyboard-response,628,1557161,null,"",null,,word,CRAB,,,,,,,,,,,,
html-keyboard-response,629,1557366,null,"<div style=""font-size:42px;"">CORAL</div><img id = ""stim"" ><div class = red_square id = bottomsquare></div>",null,encoding,word_square,,,0,bottomsquare,none,true,,,CORAL,5,,,
html-keyboard-response,630,1557669,null,"<div style=""font-size:42px;"">CORAL</div>",null,,word,CORAL,,,,,,,,,,,,
html-keyboard-response,631,1559173,null,"",null,,word,CORAL,,,,,,,,,,,,
html-keyboard-response,632,1559377,null,"<div style=""font-size:42px;"">LIPSTICK</div><img id = ""stim"" ><div class = green_square id = bottomsquare></div>",null,encoding,word_square,,,1,bottomsquare,32,true,,,LIPSTICK,5,,,
html-keyboard-response,633,1559681,154.6000000089407,"<div style=""font-size:42px;"">LIPSTICK</div>",32,,word,LIPSTICK,,,,,,,,,,,,
html-keyboard-response,634,1561184,null,"",null,,word,LIPSTICK,,,,,,,,,,,,
html-keyboard-response,635,1561387,null,"<div style=""font-size:42px;"">RADISH</div><img id = ""stim"" ><div class = red_square id = topsquare></div>",null,encoding,word_square,,,0,topsquare,none,true,,,RADISH,5,,,
html-keyboard-response,636,1561690,null,"<div style=""font-size:42px;"">RADISH</div>",null,,word,RADISH,,,,,,,,,,,,
html-keyboard-response,637,1563194,null,"",null,,word,RADISH,,,,,,,,,,,,
html-keyboard-response,638,1563399,null,"<div style=""font-size:42px;"">CIRCUS</div><img id = ""stim"" ><div class = red_square id = bottomsquare></div>",null,encoding,word_square,,,0,bottomsquare,none,true,,,CIRCUS,5,,,
html-keyboard-response,639,1563702,null,"<div style=""font-size:42px;"">CIRCUS</div>",null,,word,CIRCUS,,,,,,,,,,,,
html-keyboard-response,640,1565206,null,"",null,,word,CIRCUS,,,,,,,,,,,,
html-keyboard-response,641,1565409,null,"<div style=""font-size:42px;"">OATMEAL</div><img id = ""stim"" ><div class = green_square id = topsquare></div>",null,encoding,word_square,,,1,topsquare,32,true,,,OATMEAL,5,,,
html-keyboard-response,642,1565713,127.80000001192093,"<div style=""font-size:42px;"">OATMEAL</div>",32,,word,OATMEAL,,,,,,,,,,,,
html-keyboard-response,643,1567216,null,"",null,,word,OATMEAL,,,,,,,,,,,,
call-function,644,1567220,,"",,,,,,,,,,,,,,,,
html-keyboard-response,645,1567322,null,"",null,,,,,,,,,,,,,,,
math-period,646,1569531,4195.199999988079,"",,,,,,,,,,,4,,,,,
html-keyboard-response,647,1569635,null,"",null,,,,,,,,,,,,,,,
math-period,648,1571985,4616.800000011921,"",,,,,,,,,,,2,,,,,
html-keyboard-response,649,1572088,null,"",null,,,,,,,,,,,,,,,
math-period,650,1573917,3564.8999999910593,"",,,,,,,,,,,2,,,,,
html-keyboard-response,651,1574021,null,"",null,,,,,,,,,,,,,,,
math-period,652,1575033,1914.7000000029802,"",,,,,,,,,,,2,,,,,
html-keyboard-response,653,1575136,null,"",null,,,,,,,,,,,,,,,
math-period,654,1577127,3900.500000014901,"",,,,,,,,,,,4,,,,,
html-keyboard-response,655,1577230,null,"",null,,,,,,,,,,,,,,,
math-period,656,1578677,2830.2999999821186,"",,,,,,,,,,,2,,,,,
html-keyboard-response,657,1578780,null,"",null,,,,,,,,,,,,,,,
math-period,658,1581441,5240.5999999940395,"",,,,,,,,,,,5,,,,,
html-keyboard-response,659,1581544,null,"",null,,,,,,,,,,,,,,,
math-period,660,1583568,3947.999999985099,"",,,,,,,,,,,1,,,,,
html-keyboard-response,661,1583671,null,"",null,,,,,,,,,,,,,,,
math-period,662,1585787,4168.299999982119,"",,,,,,,,,,,6,,,,,
html-keyboard-response,663,1585890,null,"",null,,,,,,,,,,,,,,,
math-period,664,1587795,3780.9000000059605,"",,,,,,,,,,,4,,,,,
html-keyboard-response,665,1587898,null,"",null,,,,,,,,,,,,,,,
math-period,666,1591222,null,"",,,,,,,,,,,,,,,,
html-keyboard-response,667,1592225,null,"Recall Period!",null,,,,,,,,,,,,,,,
call-function,668,1592226,,"",,,,,,,,,,,,,,,,
html-keyboard-response,669,1592328,null,"",null,,,,,,,,,,,,,,,
recall-period,670,1594622,11689.500000044703,"",,,,,,,,,,,basket,,,,,
html-keyboard-response,671,1594726,null,"",null,,,,,,,,,,,,,,,
recall-period,672,1596499,7165.199999958277,"",,,,,,,,,,,female,,,,,
html-keyboard-response,673,1596601,null,"",null,,,,,,,,,,,,,,,
recall-period,674,1599962,22594.200000047684,"",,,,,,,,,,,oatmeal,,,,,
html-keyboard-response,675,1600067,null,"",null,,,,,,,,,,,,,,,
recall-period,676,1603749,16432.70000001788,"",,,,,,,,,,,twig,,,,,
html-keyboard-response,677,1603852,null,"",null,,,,,,,,,,,,,,,
recall-period,678,1605240,4882.700000017881,"",,,,,,,,,,,shrub,,,,,
html-keyboard-response,679,1605343,null,"",null,,,,,,,,,,,,,,,
recall-period,680,1607418,10997.500000029802,"",,,,,,,,,,,neutron,,,,,
html-keyboard-response,681,1607521,null,"",null,,,,,,,,,,,,,,,
recall-period,682,1667228,null,"",,,,,,,,,,,,,,,,
html-keyboard-response,683,1667731,null,"Time's Up!",null,,,,,,,,,,,,,,,
html-keyboard-response,684,1668616,880.7000000029802,"<p> Good job! You have responded correctly to 100% of the trials. </p>
                      <p>Be sure to only press the spacebar if you see a GREEN square, and please keep your accuracy above 80%.</p>
                      <p> Press any key to continue the experiment. </p>",32,,,,,,,,,,,,,,,
html-keyboard-response,685,1669368,749.1000000089407,"<div style=""font-size:48px;"">Press any key to begin list 7 of 16 </div>",32,,,,,,,,,,,,,,,
html-keyboard-response,686,1671871,null,"<div style=""font-size:60px;"">+</div>",null,,,,,,,,,,,,,,,
html-keyboard-response,687,1672075,null,"<div style=""font-size:42px;"">TOILET</div><img id = ""stim"" ><div class = red_square id = bottomsquare></div>",null,encoding,word_square,,,0,bottomsquare,none,true,,,TOILET,6,,,
html-keyboard-response,688,1672378,null,"<div style=""font-size:42px;"">TOILET</div>",null,,word,TOILET,,,,,,,,,,,,
html-keyboard-response,689,1673881,null,"",null,,word,TOILET,,,,,,,,,,,,
html-keyboard-response,690,1674085,null,"<div style=""font-size:42px;"">BISON</div><img id = ""stim"" ><div class = green_square id = topsquare></div>",null,encoding,word_square,,,1,topsquare,32,true,,,BISON,6,,,
html-keyboard-response,691,1674388,149.70000000298023,"<div style=""font-size:42px;"">BISON</div>",32,,word,BISON,,,,,,,,,,,,
html-keyboard-response,692,1675891,null,"",null,,word,BISON,,,,,,,,,,,,
html-keyboard-response,693,1676097,null,"<div style=""font-size:42px;"">CATTLE</div><img id = ""stim"" ><div class = green_square id = bottomsquare></div>",null,encoding,word_square,,,1,bottomsquare,32,true,,,CATTLE,6,,,
html-keyboard-response,694,1676400,128.90000000596046,"<div style=""font-size:42px;"">CATTLE</div>",32,,word,CATTLE,,,,,,,,,,,,
html-keyboard-response,695,1677903,null,"",null,,word,CATTLE,,,,,,,,,,,,
html-keyboard-response,696,1678107,null,"<div style=""font-size:42px;"">CABBAGE</div><img id = ""stim"" ><div class = red_square id = topsquare></div>",null,encoding,word_square,,,0,topsquare,none,true,,,CABBAGE,6,,,
html-keyboard-response,697,1678410,null,"<div style=""font-size:42px;"">CABBAGE</div>",null,,word,CABBAGE,,,,,,,,,,,,
html-keyboard-response,698,1679914,null,"",null,,word,CABBAGE,,,,,,,,,,,,
html-keyboard-response,699,1680117,null,"<div style=""font-size:42px;"">TRANSPLANT</div><img id = ""stim"" ><div class = green_square id = topsquare></div>",null,encoding,word_square,,,1,topsquare,32,true,,,TRANSPLANT,6,,,
html-keyboard-response,700,1680421,148,"<div style=""font-size:42px;"">TRANSPLANT</div>",32,,word,TRANSPLANT,,,,,,,,,,,,
html-keyboard-response,701,1681924,null,"",null,,word,TRANSPLANT,,,,,,,,,,,,
html-keyboard-response,702,1682128,null,"<div style=""font-size:42px;"">STAPLE</div><img id = ""stim"" ><div class = green_square id = bottomsquare></div>",null,encoding,word_square,,,1,bottomsquare,32,true,,,STAPLE,6,,,
html-keyboard-response,703,1682432,101.5,"<div style=""font-size:42px;"">STAPLE</div>",32,,word,STAPLE,,,,,,,,,,,,
html-keyboard-response,704,1683935,null,"",null,,word,STAPLE,,,,,,,,,,,,
html-keyboard-response,705,1684142,null,"<div style=""font-size:42px;"">MONARCH</div><img id = ""stim"" ><div class = red_square id = bottomsquare></div>",null,encoding,word_square,,,0,bottomsquare,none,true,,,MONARCH,6,,,
html-keyboard-response,706,1684445,null,"<div style=""font-size:42px;"">MONARCH</div>",null,,word,MONARCH,,,,,,,,,,,,
html-keyboard-response,707,1685949,null,"",null,,word,MONARCH,,,,,,,,,,,,
html-keyboard-response,708,1686152,null,"<div style=""font-size:42px;"">TURNIP</div><img id = ""stim"" ><div class = green_square id = topsquare></div>",null,encoding,word_square,,,1,topsquare,32,true,,,TURNIP,6,,,
html-keyboard-response,709,1686455,155.1000000089407,"<div style=""font-size:42px;"">TURNIP</div>",32,,word,TURNIP,,,,,,,,,,,,
html-keyboard-response,710,1687958,null,"",null,,word,TURNIP,,,,,,,,,,,,
html-keyboard-response,711,1688162,null,"<div style=""font-size:42px;"">STOCKING</div><img id = ""stim"" ><div class = red_square id = topsquare></div>",null,encoding,word_square,,,0,topsquare,none,true,,,STOCKING,6,,,
html-keyboard-response,712,1688465,null,"<div style=""font-size:42px;"">STOCKING</div>",null,,word,STOCKING,,,,,,,,,,,,
html-keyboard-response,713,1689969,null,"",null,,word,STOCKING,,,,,,,,,,,,
html-keyboard-response,714,1690180,null,"<div style=""font-size:42px;"">HAND</div><img id = ""stim"" ><div class = red_square id = bottomsquare></div>",null,encoding,word_square,,,0,bottomsquare,none,true,,,HAND,6,,,
html-keyboard-response,715,1690484,null,"<div style=""font-size:42px;"">HAND</div>",null,,word,HAND,,,,,,,,,,,,
html-keyboard-response,716,1691988,null,"",null,,word,HAND,,,,,,,,,,,,
html-keyboard-response,717,1692191,null,"<div style=""font-size:42px;"">CHARCOAL</div><img id = ""stim"" ><div class = green_square id = bottomsquare></div>",null,encoding,word_square,,,1,bottomsquare,32,true,,,CHARCOAL,6,,,
html-keyboard-response,718,1692495,170.90000000596046,"<div style=""font-size:42px;"">CHARCOAL</div>",32,,word,CHARCOAL,,,,,,,,,,,,
html-keyboard-response,719,1693998,null,"",null,,word,CHARCOAL,,,,,,,,,,,,
html-keyboard-response,720,1694202,null,"<div style=""font-size:42px;"">BELLY</div><img id = ""stim"" ><div class = green_square id = topsquare></div>",null,encoding,word_square,,,1,topsquare,32,true,,,BELLY,6,,,
html-keyboard-response,721,1694506,124.6000000089407,"<div style=""font-size:42px;"">BELLY</div>",32,,word,BELLY,,,,,,,,,,,,
html-keyboard-response,722,1696014,null,"",null,,word,BELLY,,,,,,,,,,,,
html-keyboard-response,723,1696218,null,"<div style=""font-size:42px;"">MASK</div><img id = ""stim"" ><div class = red_square id = topsquare></div>",null,encoding,word_square,,,0,topsquare,none,true,,,MASK,6,,,
html-keyboard-response,724,1696521,null,"<div style=""font-size:42px;"">MASK</div>",null,,word,MASK,,,,,,,,,,,,
html-keyboard-response,725,1698024,null,"",null,,word,MASK,,,,,,,,,,,,
html-keyboard-response,726,1698228,null,"<div style=""font-size:42px;"">ISLAND</div><img id = ""stim"" ><div class = green_square id = bottomsquare></div>",null,encoding,word_square,,,1,bottomsquare,32,true,,,ISLAND,6,,,
html-keyboard-response,727,1698532,152.79999999701977,"<div style=""font-size:42px;"">ISLAND</div>",32,,word,ISLAND,,,,,,,,,,,,
html-keyboard-response,728,1700037,null,"",null,,word,ISLAND,,,,,,,,,,,,
html-keyboard-response,729,1700240,null,"<div style=""font-size:42px;"">PRINCESS</div><img id = ""stim"" ><div class = red_square id = bottomsquare></div>",null,encoding,word_square,,,0,bottomsquare,none,true,,,PRINCESS,6,,,
html-keyboard-response,730,1700543,null,"<div style=""font-size:42px;"">PRINCESS</div>",null,,word,PRINCESS,,,,,,,,,,,,
html-keyboard-response,731,1702046,null,"",null,,word,PRINCESS,,,,,,,,,,,,
html-keyboard-response,732,1702262,null,"<div style=""font-size:42px;"">STREET</div><img id = ""stim"" ><div class = red_square id = topsquare></div>",null,encoding,word_square,,,0,topsquare,none,true,,,STREET,6,,,
html-keyboard-response,733,1702574,null,"<div style=""font-size:42px;"">STREET</div>",null,,word,STREET,,,,,,,,,,,,
html-keyboard-response,734,1704082,null,"",null,,word,STREET,,,,,,,,,,,,
call-function,735,1704085,,"",,,,,,,,,,,,,,,,
html-keyboard-response,736,1704190,null,"",null,,,,,,,,,,,,,,,
math-period,737,1707206,5894.5,"",,,,,,,,,,,2,,,,,
html-keyboard-response,738,1707309,null,"",null,,,,,,,,,,,,,,,
math-period,739,1709252,3793,"",,,,,,,,,,,5,,,,,
html-keyboard-response,740,1709355,null,"",null,,,,,,,,,,,,,,,
math-period,741,1710697,2618.800000011921,"",,,,,,,,,,,6,,,,,
html-keyboard-response,742,1710800,null,"",null,,,,,,,,,,,,,,,
math-period,743,1713520,5058.999999985099,"",,,,,,,,,,,3,,,,,
html-keyboard-response,744,1713623,null,"",null,,,,,,,,,,,,,,,
math-period,745,1715299,3269.5999999791384,"",,,,,,,,,,,1,,,,,
html-keyboard-response,746,1715414,null,"",null,,,,,,,,,,,,,,,
math-period,747,1718465,5973.5,"",,,,,,,,,,,2,,,,,
html-keyboard-response,748,1718569,null,"",null,,,,,,,,,,,,,,,
math-period,749,1720954,4696.800000011921,"",,,,,,,,,,,1,,,,,
html-keyboard-response,750,1721065,null,"",null,,,,,,,,,,,,,,,
math-period,751,1724039,5858.699999988079,"",,,,,,,,,,,2,,,,,
html-keyboard-response,752,1724146,null,"",null,,,,,,,,,,,,,,,
math-period,753,1726318,4216.399999991059,"",,,,,,,,,,,2,,,,,
html-keyboard-response,754,1726421,null,"",null,,,,,,,,,,,,,,,
math-period,755,1728089,null,"",,,,,,,,,,,,,,,,
html-keyboard-response,756,1729093,null,"Recall Period!",null,,,,,,,,,,,,,,,
call-function,757,1729094,,"",,,,,,,,,,,,,,,,
html-keyboard-response,758,1729197,null,"",null,,,,,,,,,,,,,,,
recall-period,759,1731355,12346.499999970198,"",,,,,,,,,,,cattle,,,,,
html-keyboard-response,760,1731458,null,"",null,,,,,,,,,,,,,,,
recall-period,761,1732629,4164.700000032783,"",,,,,,,,,,,bison,,,,,
html-keyboard-response,762,1732733,null,"",null,,,,,,,,,,,,,,,
recall-period,763,1740909,45710.5,"",,,,,,,,,,,belly,,,,,
html-keyboard-response,764,1741012,null,"",null,,,,,,,,,,,,,,,
recall-period,765,1743746,16009.699999988079,"",,,,,,,,,,,charcoal,,,,,
html-keyboard-response,766,1743851,null,"",null,,,,,,,,,,,,,,,
recall-period,767,1766655,175275.80000002682,"",,,,,,,,,,,cricket,,,,,
html-keyboard-response,768,1766758,null,"",null,,,,,,,,,,,,,,,
recall-period,769,1804096,null,"",,,,,,,,,,,,,,,,
html-keyboard-response,770,1804600,null,"Time's Up!",null,,,,,,,,,,,,,,,
html-keyboard-response,771,1805590,986,"<p> Good job! You have responded correctly to 100% of the trials. </p>
                      <p>Be sure to only press the spacebar if you see a GREEN square, and please keep your accuracy above 80%.</p>
                      <p> Press any key to continue the experiment. </p>",32,,,,,,,,,,,,,,,
html-keyboard-response,772,1806392,799.8999999910593,"<div style=""font-size:48px;"">Press any key to begin list 8 of 16 </div>",32,,,,,,,,,,,,,,,
html-keyboard-response,773,1808895,null,"<div style=""font-size:60px;"">+</div>",null,,,,,,,,,,,,,,,
html-keyboard-response,774,1809098,null,"<div style=""font-size:42px;"">STOMACH</div><img id = ""stim"" ><div class = red_square id = topsquare></div>",null,encoding,word_square,,,0,topsquare,none,true,,,STOMACH,7,,,
html-keyboard-response,775,1809402,null,"<div style=""font-size:42px;"">STOMACH</div>",null,,word,STOMACH,,,,,,,,,,,,
html-keyboard-response,776,1810905,null,"",null,,word,STOMACH,,,,,,,,,,,,
html-keyboard-response,777,1811109,null,"<div style=""font-size:42px;"">ULCER</div><img id = ""stim"" ><div class = red_square id = bottomsquare></div>",null,encoding,word_square,,,0,bottomsquare,none,true,,,ULCER,7,,,
html-keyboard-response,778,1811411,null,"<div style=""font-size:42px;"">ULCER</div>",null,,word,ULCER,,,,,,,,,,,,
html-keyboard-response,779,1812917,null,"",null,,word,ULCER,,,,,,,,,,,,
html-keyboard-response,780,1813120,null,"<div style=""font-size:42px;"">EUROPE</div><img id = ""stim"" ><div class = green_square id = bottomsquare></div>",null,encoding,word_square,,,1,bottomsquare,32,true,,,EUROPE,7,,,
html-keyboard-response,781,1813423,289.70000000298023,"<div style=""font-size:42px;"">EUROPE</div>",32,,word,EUROPE,,,,,,,,,,,,
html-keyboard-response,782,1814927,null,"",null,,word,EUROPE,,,,,,,,,,,,
html-keyboard-response,783,1815131,null,"<div style=""font-size:42px;"">GRAVE</div><img id = ""stim"" ><div class = red_square id = topsquare></div>",null,encoding,word_square,,,0,topsquare,none,true,,,GRAVE,7,,,
html-keyboard-response,784,1815434,null,"<div style=""font-size:42px;"">GRAVE</div>",null,,word,GRAVE,,,,,,,,,,,,
html-keyboard-response,785,1816937,null,"",null,,word,GRAVE,,,,,,,,,,,,
html-keyboard-response,786,1817142,null,"<div style=""font-size:42px;"">TOMBSTONE</div><img id = ""stim"" ><div class = green_square id = topsquare></div>",null,encoding,word_square,,,1,topsquare,32,true,,,TOMBSTONE,7,,,
html-keyboard-response,787,1817491,143.8999999910593,"<div style=""font-size:42px;"">TOMBSTONE</div>",32,,word,TOMBSTONE,,,,,,,,,,,,
html-keyboard-response,788,1818997,null,"",null,,word,TOMBSTONE,,,,,,,,,,,,
html-keyboard-response,789,1819201,null,"<div style=""font-size:42px;"">TRUCK</div><img id = ""stim"" ><div class = green_square id = bottomsquare></div>",null,encoding,word_square,,,1,bottomsquare,32,true,,,TRUCK,7,,,
html-keyboard-response,790,1819504,137.1000000089407,"<div style=""font-size:42px;"">TRUCK</div>",32,,word,TRUCK,,,,,,,,,,,,
html-keyboard-response,791,1821008,null,"",null,,word,TRUCK,,,,,,,,,,,,
html-keyboard-response,792,1821212,null,"<div style=""font-size:42px;"">EYELASH</div><img id = ""stim"" ><div class = red_square id = bottomsquare></div>",null,encoding,word_square,,,0,bottomsquare,none,true,,,EYELASH,7,,,
html-keyboard-response,793,1821515,null,"<div style=""font-size:42px;"">EYELASH</div>",null,,word,EYELASH,,,,,,,,,,,,
html-keyboard-response,794,1823019,null,"",null,,word,EYELASH,,,,,,,,,,,,
html-keyboard-response,795,1823223,null,"<div style=""font-size:42px;"">FROG</div><img id = ""stim"" ><div class = red_square id = topsquare></div>",null,encoding,word_square,,,0,topsquare,none,true,,,FROG,7,,,
html-keyboard-response,796,1823526,null,"<div style=""font-size:42px;"">FROG</div>",null,,word,FROG,,,,,,,,,,,,
html-keyboard-response,797,1825030,null,"",null,,word,FROG,,,,,,,,,,,,
html-keyboard-response,798,1825233,null,"<div style=""font-size:42px;"">OX</div><img id = ""stim"" ><div class = green_square id = topsquare></div>",null,encoding,word_square,,,1,topsquare,32,true,,,OX,7,,,
html-keyboard-response,799,1825540,59.30000001192093,"<div style=""font-size:42px;"">OX</div>",32,,word,OX,,,,,,,,,,,,
html-keyboard-response,800,1827043,null,"",null,,word,OX,,,,,,,,,,,,
html-keyboard-response,801,1827249,null,"<div style=""font-size:42px;"">CAFE</div><img id = ""stim"" ><div class = red_square id = bottomsquare></div>",null,encoding,word_square,,,0,bottomsquare,none,true,,,CAFE,7,,,
html-keyboard-response,802,1827552,null,"<div style=""font-size:42px;"">CAFE</div>",null,,word,CAFE,,,,,,,,,,,,
html-keyboard-response,803,1829055,null,"",null,,word,CAFE,,,,,,,,,,,,
html-keyboard-response,804,1829259,null,"<div style=""font-size:42px;"">BRANDY</div><img id = ""stim"" ><div class = green_square id = bottomsquare></div>",null,encoding,word_square,,,1,bottomsquare,32,true,,,BRANDY,7,,,
html-keyboard-response,805,1829562,116.5,"<div style=""font-size:42px;"">BRANDY</div>",32,,word,BRANDY,,,,,,,,,,,,
html-keyboard-response,806,1831068,null,"",null,,word,BRANDY,,,,,,,,,,,,
html-keyboard-response,807,1831273,null,"<div style=""font-size:42px;"">BEETLE</div><img id = ""stim"" ><div class = green_square id = topsquare></div>",null,encoding,word_square,,,1,topsquare,32,true,,,BEETLE,7,,,
html-keyboard-response,808,1831576,106.70000000298023,"<div style=""font-size:42px;"">BEETLE</div>",32,,word,BEETLE,,,,,,,,,,,,
html-keyboard-response,809,1833080,null,"",null,,word,BEETLE,,,,,,,,,,,,
html-keyboard-response,810,1833287,null,"<div style=""font-size:42px;"">FLASK</div><img id = ""stim"" ><div class = red_square id = topsquare></div>",null,encoding,word_square,,,0,topsquare,none,true,,,FLASK,7,,,
html-keyboard-response,811,1833590,null,"<div style=""font-size:42px;"">FLASK</div>",null,,word,FLASK,,,,,,,,,,,,
html-keyboard-response,812,1835094,null,"",null,,word,FLASK,,,,,,,,,,,,
html-keyboard-response,813,1835297,null,"<div style=""font-size:42px;"">BROOK</div><img id = ""stim"" ><div class = green_square id = bottomsquare></div>",null,encoding,word_square,,,1,bottomsquare,32,true,,,BROOK,7,,,
html-keyboard-response,814,1835601,112,"<div style=""font-size:42px;"">BROOK</div>",32,,word,BROOK,,,,,,,,,,,,
html-keyboard-response,815,1837105,null,"",null,,word,BROOK,,,,,,,,,,,,
html-keyboard-response,816,1837309,null,"<div style=""font-size:42px;"">COLESLAW</div><img id = ""stim"" ><div class = green_square id = topsquare></div>",null,encoding,word_square,,,1,topsquare,32,true,,,COLESLAW,7,,,
html-keyboard-response,817,1837612,138.20000000298023,"<div style=""font-size:42px;"">COLESLAW</div>",32,,word,COLESLAW,,,,,,,,,,,,
html-keyboard-response,818,1839116,null,"",null,,word,COLESLAW,,,,,,,,,,,,
html-keyboard-response,819,1839319,null,"<div style=""font-size:42px;"">COUNTRY</div><img id = ""stim"" ><div class = red_square id = bottomsquare></div>",null,encoding,word_square,,,0,bottomsquare,none,true,,,COUNTRY,7,,,
html-keyboard-response,820,1839622,null,"<div style=""font-size:42px;"">COUNTRY</div>",null,,word,COUNTRY,,,,,,,,,,,,
html-keyboard-response,821,1841126,null,"",null,,word,COUNTRY,,,,,,,,,,,,
call-function,822,1841129,,"",,,,,,,,,,,,,,,,
html-keyboard-response,823,1841231,null,"",null,,,,,,,,,,,,,,,
math-period,824,1843785,4969.300000011921,"",,,,,,,,,,,5,,,,,
html-keyboard-response,825,1843888,null,"",null,,,,,,,,,,,,,,,
math-period,826,1846450,5017.9000000059605,"",,,,,,,,,,,1,,,,,
html-keyboard-response,827,1846553,null,"",null,,,,,,,,,,,,,,,
math-period,828,1848502,3716.300000011921,"",,,,,,,,,,,3,,,,,
html-keyboard-response,829,1848605,null,"",null,,,,,,,,,,,,,,,
math-period,830,1851038,4735.699999988079,"",,,,,,,,,,,2,,,,,
html-keyboard-response,831,1851142,null,"",null,,,,,,,,,,,,,,,
math-period,832,1852498,2623.999999985099,"",,,,,,,,,,,2,,,,,
html-keyboard-response,833,1852602,null,"",null,,,,,,,,,,,,,,,
math-period,834,1855037,4782.699999988079,"",,,,,,,,,,,6,,,,,
html-keyboard-response,835,1855148,null,"",null,,,,,,,,,,,,,,,
math-period,836,1858474,6590.70000000298,"",,,,,,,,,,,5,,,,,
html-keyboard-response,837,1858578,null,"",null,,,,,,,,,,,,,,,
math-period,838,1860709,4178.899999991059,"",,,,,,,,,,,3,,,,,
html-keyboard-response,839,1860813,null,"",null,,,,,,,,,,,,,,,
math-period,840,1865134,null,"",,,,,,,,,,,,,,,,
html-keyboard-response,841,1866138,null,"Recall Period!",null,,,,,,,,,,,,,,,
call-function,842,1866139,,"",,,,,,,,,,,,,,,,
html-keyboard-response,843,1866242,null,"",null,,,,,,,,,,,,,,,
recall-period,844,1868598,12074.000000059605,"",,,,,,,,,,,europe,,,,,
html-keyboard-response,845,1868701,null,"",null,,,,,,,,,,,,,,,
recall-period,846,1870175,6484.100000023842,"",,,,,,,,,,,country,,,,,
html-keyboard-response,847,1870278,null,"",null,,,,,,,,,,,,,,,
recall-period,848,1871516,4795.70000000298,"",,,,,,,,,,,grave,,,,,
html-keyboard-response,849,1871619,null,"",null,,,,,,,,,,,,,,,
recall-period,850,1873680,12741.299999982119,"",,,,,,,,,,,tombstone,,,,,
html-keyboard-response,851,1873783,null,"",null,,,,,,,,,,,,,,,
recall-period,852,1875527,7015.100000023842,"",,,,,,,,,,,stomach,,,,,
html-keyboard-response,853,1875632,null,"",null,,,,,,,,,,,,,,,
recall-period,854,1877076,5532.199999988079,"",,,,,,,,,,,ulcer,,,,,
html-keyboard-response,855,1877180,null,"",null,,,,,,,,,,,,,,,
recall-period,856,1941142,null,"",,,,,,,,,,,,,,,,
html-keyboard-response,857,1941646,null,"Time's Up!",null,,,,,,,,,,,,,,,
html-keyboard-response,858,1942741,1087.2000000029802,"<p> Good job! You have responded correctly to 100% of the trials. </p>
                      <p>Be sure to only press the spacebar if you see a GREEN square, and please keep your accuracy above 80%.</p>
                      <p> Press any key to continue the experiment. </p>",32,,,,,,,,,,,,,,,
html-keyboard-response,859,1943482,738.2000000029802,"<div style=""font-size:48px;"">Press any key to begin list 9 of 16 </div>",32,,,,,,,,,,,,,,,
html-keyboard-response,860,1945986,null,"<div style=""font-size:60px;"">+</div>",null,,,,,,,,,,,,,,,
html-keyboard-response,861,1946190,null,"<div style=""font-size:42px;"">SCHOOL</div><img id = ""stim"" ><div class = green_square id = topsquare></div>",null,encoding,word_square,,,1,topsquare,32,true,,,SCHOOL,8,,,
html-keyboard-response,862,1946493,280.29999999701977,"<div style=""font-size:42px;"">SCHOOL</div>",32,,word,SCHOOL,,,,,,,,,,,,
html-keyboard-response,863,1947997,null,"",null,,word,SCHOOL,,,,,,,,,,,,
html-keyboard-response,864,1948201,null,"<div style=""font-size:42px;"">SHELF</div><img id = ""stim"" ><div class = red_square id = bottomsquare></div>",null,encoding,word_square,,,0,bottomsquare,none,true,,,SHELF,8,,,
html-keyboard-response,865,1948504,null,"<div style=""font-size:42px;"">SHELF</div>",null,,word,SHELF,,,,,,,,,,,,
html-keyboard-response,866,1950008,null,"",null,,word,SHELF,,,,,,,,,,,,
html-keyboard-response,867,1950214,null,"<div style=""font-size:42px;"">PREACHER</div><img id = ""stim"" ><div class = red_square id = topsquare></div>",null,encoding,word_square,,,0,topsquare,none,true,,,PREACHER,8,,,
html-keyboard-response,868,1950517,null,"<div style=""font-size:42px;"">PREACHER</div>",null,,word,PREACHER,,,,,,,,,,,,
html-keyboard-response,869,1952021,null,"",null,,word,PREACHER,,,,,,,,,,,,
html-keyboard-response,870,1952225,null,"<div style=""font-size:42px;"">PATIENT</div><img id = ""stim"" ><div class = green_square id = bottomsquare></div>",null,encoding,word_square,,,1,bottomsquare,32,true,,,PATIENT,8,,,
html-keyboard-response,871,1952528,142,"<div style=""font-size:42px;"">PATIENT</div>",32,,word,PATIENT,,,,,,,,,,,,
html-keyboard-response,872,1954032,null,"",null,,word,PATIENT,,,,,,,,,,,,
html-keyboard-response,873,1954238,null,"<div style=""font-size:42px;"">STRANGER</div><img id = ""stim"" ><div class = green_square id = topsquare></div>",null,encoding,word_square,,,1,topsquare,32,true,,,STRANGER,8,,,
html-keyboard-response,874,1954541,100.29999999701977,"<div style=""font-size:42px;"">STRANGER</div>",32,,word,STRANGER,,,,,,,,,,,,
html-keyboard-response,875,1956045,null,"",null,,word,STRANGER,,,,,,,,,,,,
html-keyboard-response,876,1956249,null,"<div style=""font-size:42px;"">SNACK</div><img id = ""stim"" ><div class = red_square id = bottomsquare></div>",null,encoding,word_square,,,0,bottomsquare,none,true,,,SNACK,8,,,
html-keyboard-response,877,1956552,null,"<div style=""font-size:42px;"">SNACK</div>",null,,word,SNACK,,,,,,,,,,,,
html-keyboard-response,878,1958055,null,"",null,,word,SNACK,,,,,,,,,,,,
html-keyboard-response,879,1958259,null,"<div style=""font-size:42px;"">AIRCRAFT</div><img id = ""stim"" ><div class = green_square id = bottomsquare></div>",null,encoding,word_square,,,1,bottomsquare,32,true,,,AIRCRAFT,8,,,
html-keyboard-response,880,1958562,127.1000000089407,"<div style=""font-size:42px;"">AIRCRAFT</div>",32,,word,AIRCRAFT,,,,,,,,,,,,
html-keyboard-response,881,1960066,null,"",null,,word,AIRCRAFT,,,,,,,,,,,,
html-keyboard-response,882,1960271,null,"<div style=""font-size:42px;"">MOTOR</div><img id = ""stim"" ><div class = green_square id = topsquare></div>",null,encoding,word_square,,,1,topsquare,32,true,,,MOTOR,8,,,
html-keyboard-response,883,1960574,152.70000000298023,"<div style=""font-size:42px;"">MOTOR</div>",32,,word,MOTOR,,,,,,,,,,,,
html-keyboard-response,884,1962078,null,"",null,,word,MOTOR,,,,,,,,,,,,
html-keyboard-response,885,1962281,null,"<div style=""font-size:42px;"">CHICKEN</div><img id = ""stim"" ><div class = red_square id = topsquare></div>",null,encoding,word_square,,,0,topsquare,none,true,,,CHICKEN,8,,,
html-keyboard-response,886,1962585,null,"<div style=""font-size:42px;"">CHICKEN</div>",null,,word,CHICKEN,,,,,,,,,,,,
html-keyboard-response,887,1964089,null,"",null,,word,CHICKEN,,,,,,,,,,,,
html-keyboard-response,888,1964292,null,"<div style=""font-size:42px;"">CHAMPAGNE</div><img id = ""stim"" ><div class = red_square id = bottomsquare></div>",null,encoding,word_square,,,0,bottomsquare,none,true,,,CHAMPAGNE,8,,,
html-keyboard-response,889,1964596,null,"<div style=""font-size:42px;"">CHAMPAGNE</div>",null,,word,CHAMPAGNE,,,,,,,,,,,,
html-keyboard-response,890,1966099,null,"",null,,word,CHAMPAGNE,,,,,,,,,,,,
html-keyboard-response,891,1966304,null,"<div style=""font-size:42px;"">SCOTCH</div><img id = ""stim"" ><div class = green_square id = bottomsquare></div>",null,encoding,word_square,,,1,bottomsquare,32,true,,,SCOTCH,8,,,
html-keyboard-response,892,1966608,63.69999998807907,"<div style=""font-size:42px;"">SCOTCH</div>",32,,word,SCOTCH,,,,,,,,,,,,
html-keyboard-response,893,1968112,null,"",null,,word,SCOTCH,,,,,,,,,,,,
