trial_type,trial_index,time_elapsed,rt,stimulus,key_press,exp_phase,test_part,word,task,targ_cond,sq_pos,correctKeyCode,correct,value,response,Word,List,RecResp,serial_pos,colorChosen
pavlovia,0,4863,,"",,,,,,,,,,,,,,,,
external-html,1,17611,10958,"",,,,,,,,,,,,,,,,
html-keyboard-response,2,20448,2833.2999999523163,"Welcome to the experiment. Press any key to begin.",32,,,,,,,,,,,,,,,
html-keyboard-response,3,31831,11382.200000047684,"<p>You will see a list of words and colored squares in the following task.<p><p>Press the spacebar whenever you see a red square.<p><p>Do not press a key if the square is green.<p><p>Press the spacebar to continue.</p>",32,,,,,,,,,,,,,,,
html-keyboard-response,4,40383,8050.899999856949,"<p>Please try to remember as many of the words as you can, and try to think about the meaning of each word as it appears.<p><p>After the detection and encoding task you will be asked to solve some math problems for 24 seconds.<p> Please solve as many problems as you can in the time given. <p><p><p>Press the spacebar to continue.</p>",32,,,,,,,,,,,,,,,
html-keyboard-response,5,47343,6457.900000095367,"After solving the math problems, you will be asked to type in as many words <p>from the previous list as you can remember for 75 seconds.<p> If you finish recalling before the 75 seconds are up,<p> just sit tight and try to think of any more words you could have missed. <p><p><p>Press the spacebar to continue.</p>",32,,,,,,,,,,,,,,,
html-keyboard-response,6,52343,4497.599999904633,"There will be 16 lists of words and recall, followed  by<p><p> a recognition phase. The experiment is expected to take up to 90 minutes.<p>We will begin with a brief practice session.<p>Press the spacebar to begin the practice.</p>",32,,,,,,,,,,,,,,,
html-keyboard-response,7,54846,null,"<div style=""font-size:60px;"">+</div>",null,,,,,,,,,,,,,,,
html-keyboard-response,8,55048,null,"<div style=""font-size:42px;"">HAPPY</div><img id = ""stim"" ><div class = green_square id = ""bottomsquare"" ></div>",null,practice,word_square,HAPPY,prac_response,0,Bottom,none,true,,,,,,,
html-keyboard-response,9,55351,null,"<div style=""font-size:42px;"">HAPPY</div>",null,,word,HAPPY,,,,,,,,,,,,
html-keyboard-response,10,56852,null,"",null,,word,HAPPY,,,,,,,,,,,,
html-keyboard-response,11,57055,null,"<div style=""font-size:42px;"">COLD</div><img id = ""stim"" ><div class = red_square id = ""bottomsquare"" ></div>",null,practice,word_square,COLD,prac_response,1,Bottom,32,true,,,,,,,
html-keyboard-response,12,57356,175.89999985694885,"<div style=""font-size:42px;"">COLD</div>",32,,word,COLD,,,,,,,,,,,,
html-keyboard-response,13,58858,null,"",null,,word,COLD,,,,,,,,,,,,
html-keyboard-response,14,59059,null,"<div style=""font-size:42px;"">HEAVY</div><img id = ""stim"" ><div class = red_square id = ""topsquare"" ></div>",null,practice,word_square,HEAVY,prac_response,1,Top,32,true,,,,,,,
html-keyboard-response,15,59361,210.70000004768372,"<div style=""font-size:42px;"">HEAVY</div>",32,,word,HEAVY,,,,,,,,,,,,
html-keyboard-response,16,60863,null,"",null,,word,HEAVY,,,,,,,,,,,,
html-keyboard-response,17,61065,null,"<div style=""font-size:42px;"">FUNNY</div><img id = ""stim"" ><div class = green_square id = ""topsquare"" ></div>",null,practice,word_square,FUNNY,prac_response,0,Top,none,true,,,,,,,
html-keyboard-response,18,61366,null,"<div style=""font-size:42px;"">FUNNY</div>",null,,word,FUNNY,,,,,,,,,,,,
html-keyboard-response,19,62868,null,"",null,,word,FUNNY,,,,,,,,,,,,
html-keyboard-response,20,63069,null,"<div style=""font-size:42px;"">SCARY</div><img id = ""stim"" ><div class = red_square id = ""bottomsquare"" ></div>",null,practice,word_square,SCARY,prac_response,1,Bottom,32,true,,,,,,,
html-keyboard-response,21,63371,241.70000004768372,"<div style=""font-size:42px;"">SCARY</div>",32,,word,SCARY,,,,,,,,,,,,
html-keyboard-response,22,64873,null,"",null,,word,SCARY,,,,,,,,,,,,
html-keyboard-response,23,65075,null,"<div style=""font-size:42px;"">PEACEFUL</div><img id = ""stim"" ><div class = red_square id = ""topsquare"" ></div>",null,practice,word_square,PEACEFUL,prac_response,1,Top,32,true,,,,,,,
html-keyboard-response,24,65377,147.20000004768372,"<div style=""font-size:42px;"">PEACEFUL</div>",32,,word,PEACEFUL,,,,,,,,,,,,
html-keyboard-response,25,66879,null,"",null,,word,PEACEFUL,,,,,,,,,,,,
html-keyboard-response,26,67081,null,"<div style=""font-size:42px;"">LITTLE</div><img id = ""stim"" ><div class = green_square id = ""bottomsquare"" ></div>",null,practice,word_square,LITTLE,prac_response,0,Bottom,none,true,,,,,,,
html-keyboard-response,27,67382,null,"<div style=""font-size:42px;"">LITTLE</div>",null,,word,LITTLE,,,,,,,,,,,,
html-keyboard-response,28,68884,null,"",null,,word,LITTLE,,,,,,,,,,,,
html-keyboard-response,29,69086,null,"<div style=""font-size:42px;"">TIRED</div><img id = ""stim"" ><div class = green_square id = ""topsquare"" ></div>",null,practice,word_square,TIRED,prac_response,0,Top,none,true,,,,,,,
html-keyboard-response,30,69388,null,"<div style=""font-size:42px;"">TIRED</div>",null,,word,TIRED,,,,,,,,,,,,
html-keyboard-response,31,70890,null,"",null,,word,TIRED,,,,,,,,,,,,
html-keyboard-response,32,71092,null,"<div style=""font-size:42px;"">ENTERTAINING</div><img id = ""stim"" ><div class = green_square id = ""bottomsquare"" ></div>",null,practice,word_square,ENTERTAINING,prac_response,0,Bottom,none,true,,,,,,,
html-keyboard-response,33,71394,null,"<div style=""font-size:42px;"">ENTERTAINING</div>",null,,word,ENTERTAINING,,,,,,,,,,,,
html-keyboard-response,34,72895,null,"",null,,word,ENTERTAINING,,,,,,,,,,,,
html-keyboard-response,35,73098,null,"<div style=""font-size:42px;"">GRATEFUL</div><img id = ""stim"" ><div class = red_square id = ""bottomsquare"" ></div>",null,practice,word_square,GRATEFUL,prac_response,1,Bottom,32,true,,,,,,,
html-keyboard-response,36,73399,245.20000004768372,"<div style=""font-size:42px;"">GRATEFUL</div>",32,,word,GRATEFUL,,,,,,,,,,,,
html-keyboard-response,37,74901,null,"",null,,word,GRATEFUL,,,,,,,,,,,,
html-keyboard-response,38,75102,null,"<div style=""font-size:42px;"">LOUD</div><img id = ""stim"" ><div class = green_square id = ""topsquare"" ></div>",null,practice,word_square,LOUD,prac_response,0,Top,none,true,,,,,,,
html-keyboard-response,39,75403,null,"<div style=""font-size:42px;"">LOUD</div>",null,,word,LOUD,,,,,,,,,,,,
html-keyboard-response,40,76905,null,"",null,,word,LOUD,,,,,,,,,,,,
html-keyboard-response,41,77106,null,"<div style=""font-size:42px;"">SMART</div><img id = ""stim"" ><div class = red_square id = ""topsquare"" ></div>",null,practice,word_square,SMART,prac_response,1,Top,32,true,,,,,,,
html-keyboard-response,42,77407,188.79999995231628,"<div style=""font-size:42px;"">SMART</div>",32,,word,SMART,,,,,,,,,,,,
html-keyboard-response,43,78910,null,"",null,,word,SMART,,,,,,,,,,,,
html-keyboard-response,44,79111,null,"<div style=""font-size:42px;"">SMOOTH</div><img id = ""stim"" ><div class = red_square id = ""bottomsquare"" ></div>",null,practice,word_square,SMOOTH,prac_response,1,Bottom,32,true,,,,,,,
html-keyboard-response,45,79413,279.5,"<div style=""font-size:42px;"">SMOOTH</div>",32,,word,SMOOTH,,,,,,,,,,,,
html-keyboard-response,46,80914,null,"",null,,word,SMOOTH,,,,,,,,,,,,
html-keyboard-response,47,81115,null,"<div style=""font-size:42px;"">DISHONEST</div><img id = ""stim"" ><div class = green_square id = ""bottomsquare"" ></div>",null,practice,word_square,DISHONEST,prac_response,0,Bottom,none,true,,,,,,,
html-keyboard-response,48,81418,null,"<div style=""font-size:42px;"">DISHONEST</div>",null,,word,DISHONEST,,,,,,,,,,,,
html-keyboard-response,49,82919,null,"",null,,word,DISHONEST,,,,,,,,,,,,
html-keyboard-response,50,83121,null,"<div style=""font-size:42px;"">WEALTHY</div><img id = ""stim"" ><div class = red_square id = ""topsquare"" ></div>",null,practice,word_square,WEALTHY,prac_response,1,Top,32,true,,,,,,,
html-keyboard-response,51,83422,206.09999990463257,"<div style=""font-size:42px;"">WEALTHY</div>",32,,word,WEALTHY,,,,,,,,,,,,
html-keyboard-response,52,84924,null,"",null,,word,WEALTHY,,,,,,,,,,,,
html-keyboard-response,53,85126,null,"<div style=""font-size:42px;"">BEAUTIFUL</div><img id = ""stim"" ><div class = green_square id = ""topsquare"" ></div>",null,practice,word_square,BEAUTIFUL,prac_response,0,Top,none,true,,,,,,,
html-keyboard-response,54,85428,null,"<div style=""font-size:42px;"">BEAUTIFUL</div>",null,,word,BEAUTIFUL,,,,,,,,,,,,
html-keyboard-response,55,86931,null,"",null,,word,BEAUTIFUL,,,,,,,,,,,,
html-keyboard-response,56,91688,4755.599999904633,"<p> Good job! You responded correctly to 100% of the trials. </p>
                  <p>Be sure to only press the spacebar if you see a red square, and please keep your accuracy above 80%.</p>
                  <p>We're going to try once more to make sure you understand the task. press any key to continue. </p>",32,,,,,,,,,,,,,,,
html-keyboard-response,57,96335,4647.200000047684,"<p>You will see a list of words and colored squares in the following task.<p><p>Press the spacebar whenever you see a red square.<p><p>Do not press a key if the square is green<p><p>Press the spacebar to continue.</p>",32,,,,,,,,,,,,,,,
html-keyboard-response,58,98837,null,"<div style=""font-size:60px;"">+</div>",null,,,,,,,,,,,,,,,
html-keyboard-response,59,99040,null,"<div style=""font-size:42px;"">HAPPY</div><img id = ""stim"" ><div class = green_square id = ""bottomsquare"" ></div>",null,practice2,word_square,HAPPY,prac_response,0,Bottom,none,true,,,,,,,
html-keyboard-response,60,99341,null,"<div style=""font-size:42px;"">HAPPY</div>",null,,word,HAPPY,,,,,,,,,,,,
html-keyboard-response,61,100843,null,"",null,,word,HAPPY,,,,,,,,,,,,
html-keyboard-response,62,101045,null,"<div style=""font-size:42px;"">COLD</div><img id = ""stim"" ><div class = red_square id = ""bottomsquare"" ></div>",null,practice2,word_square,,prac_response,1,Bottom,32,true,,,,,,,
html-keyboard-response,63,101347,193.5,"<div style=""font-size:42px;"">COLD</div>",32,,word,COLD,,,,,,,,,,,,
html-keyboard-response,64,102849,null,"",null,,word,COLD,,,,,,,,,,,,
html-keyboard-response,65,103051,null,"<div style=""font-size:42px;"">HEAVY</div><img id = ""stim"" ><div class = red_square id = ""topsquare"" ></div>",null,practice2,word_square,,prac_response,1,Top,32,true,,,,,,,
html-keyboard-response,66,103353,188.09999990463257,"<div style=""font-size:42px;"">HEAVY</div>",32,,word,HEAVY,,,,,,,,,,,,
html-keyboard-response,67,104854,null,"",null,,word,HEAVY,,,,,,,,,,,,
html-keyboard-response,68,105056,null,"<div style=""font-size:42px;"">FUNNY</div><img id = ""stim"" ><div class = green_square id = ""topsquare"" ></div>",null,practice2,word_square,,prac_response,0,Top,none,true,,,,,,,
html-keyboard-response,69,105358,null,"<div style=""font-size:42px;"">FUNNY</div>",null,,word,FUNNY,,,,,,,,,,,,
html-keyboard-response,70,106859,null,"",null,,word,FUNNY,,,,,,,,,,,,
html-keyboard-response,71,107061,null,"<div style=""font-size:42px;"">SCARY</div><img id = ""stim"" ><div class = red_square id = ""bottomsquare"" ></div>",null,practice2,word_square,,prac_response,1,Bottom,32,true,,,,,,,
html-keyboard-response,72,107362,137.59999990463257,"<div style=""font-size:42px;"">SCARY</div>",32,,word,SCARY,,,,,,,,,,,,
html-keyboard-response,73,108864,null,"",null,,word,SCARY,,,,,,,,,,,,
html-keyboard-response,74,109066,null,"<div style=""font-size:42px;"">PEACEFUL</div><img id = ""stim"" ><div class = red_square id = ""topsquare"" ></div>",null,practice2,word_square,,prac_response,1,Top,32,true,,,,,,,
html-keyboard-response,75,109368,164.5,"<div style=""font-size:42px;"">PEACEFUL</div>",32,,word,PEACEFUL,,,,,,,,,,,,
html-keyboard-response,76,110870,null,"",null,,word,PEACEFUL,,,,,,,,,,,,
html-keyboard-response,77,111071,null,"<div style=""font-size:42px;"">LITTLE</div><img id = ""stim"" ><div class = green_square id = ""bottomsquare"" ></div>",null,practice2,word_square,LITTLE,prac_response,0,Bottom,none,true,,,,,,,
html-keyboard-response,78,111373,null,"<div style=""font-size:42px;"">LITTLE</div>",null,,word,LITTLE,,,,,,,,,,,,
html-keyboard-response,79,112874,null,"",null,,word,LITTLE,,,,,,,,,,,,
html-keyboard-response,80,113075,null,"<div style=""font-size:42px;"">TIRED</div><img id = ""stim"" ><div class = green_square id = ""topsquare"" ></div>",null,practice2,word_square,,prac_response,0,Top,none,true,,,,,,,
html-keyboard-response,81,113377,null,"<div style=""font-size:42px;"">TIRED</div>",null,,word,TIRED,,,,,,,,,,,,
html-keyboard-response,82,114879,null,"",null,,word,TIRED,,,,,,,,,,,,
html-keyboard-response,83,115081,null,"<div style=""font-size:42px;"">ENTERTAINING</div><img id = ""stim"" ><div class = green_square id = ""bottomsquare"" ></div>",null,practice2,word_square,ENTERTAINING,prac_response,0,Bottom,none,true,,,,,,,
html-keyboard-response,84,115383,null,"<div style=""font-size:42px;"">ENTERTAINING</div>",null,,word,ENTERTAINING,,,,,,,,,,,,
html-keyboard-response,85,116885,null,"",null,,word,ENTERTAINING,,,,,,,,,,,,
html-keyboard-response,86,117086,null,"<div style=""font-size:42px;"">GRATEFUL</div><img id = ""stim"" ><div class = red_square id = ""bottomsquare"" ></div>",null,practice2,word_square,,prac_response,1,Bottom,32,true,,,,,,,
html-keyboard-response,87,117387,169.19999980926514,"<div style=""font-size:42px;"">GRATEFUL</div>",32,,word,GRATEFUL,,,,,,,,,,,,
html-keyboard-response,88,118889,null,"",null,,word,GRATEFUL,,,,,,,,,,,,
html-keyboard-response,89,119091,null,"<div style=""font-size:42px;"">LOUD</div><img id = ""stim"" ><div class = green_square id = ""topsquare"" ></div>",null,practice2,word_square,,prac_response,0,Top,none,true,,,,,,,
html-keyboard-response,90,119392,null,"<div style=""font-size:42px;"">LOUD</div>",null,,word,LOUD,,,,,,,,,,,,
html-keyboard-response,91,120894,null,"",null,,word,LOUD,,,,,,,,,,,,
html-keyboard-response,92,121096,null,"<div style=""font-size:42px;"">SMART</div><img id = ""stim"" ><div class = red_square id = ""topsquare"" ></div>",null,practice2,word_square,,prac_response,1,Top,32,true,,,,,,,
html-keyboard-response,93,121397,158.90000009536743,"<div style=""font-size:42px;"">SMART</div>",32,,word,SMART,,,,,,,,,,,,
html-keyboard-response,94,122899,null,"",null,,word,SMART,,,,,,,,,,,,
html-keyboard-response,95,123101,null,"<div style=""font-size:42px;"">SMOOTH</div><img id = ""stim"" ><div class = red_square id = ""bottomsquare"" ></div>",null,practice2,word_square,,prac_response,1,Bottom,32,true,,,,,,,
html-keyboard-response,96,123403,217.20000004768372,"<div style=""font-size:42px;"">SMOOTH</div>",32,,word,SMOOTH,,,,,,,,,,,,
html-keyboard-response,97,124904,null,"",null,,word,SMOOTH,,,,,,,,,,,,
html-keyboard-response,98,125106,null,"<div style=""font-size:42px;"">DISHONEST</div><img id = ""stim"" ><div class = green_square id = ""bottomsquare"" ></div>",null,practice2,word_square,DISHONEST,prac_response,0,Bottom,none,true,,,,,,,
html-keyboard-response,99,125407,null,"<div style=""font-size:42px;"">DISHONEST</div>",null,,word,DISHONEST,,,,,,,,,,,,
html-keyboard-response,100,126908,null,"",null,,word,DISHONEST,,,,,,,,,,,,
html-keyboard-response,101,127109,null,"<div style=""font-size:42px;"">WEALTHY</div><img id = ""stim"" ><div class = red_square id = ""topsquare"" ></div>",null,practice2,word_square,,prac_response,1,Top,32,true,,,,,,,
html-keyboard-response,102,127411,177.40000009536743,"<div style=""font-size:42px;"">WEALTHY</div>",32,,word,WEALTHY,,,,,,,,,,,,
html-keyboard-response,103,128912,null,"",null,,word,WEALTHY,,,,,,,,,,,,
html-keyboard-response,104,129115,null,"<div style=""font-size:42px;"">BEAUTIFUL</div><img id = ""stim"" ><div class = green_square id = ""topsquare"" ></div>",null,practice2,word_square,,prac_response,0,Top,none,false,,,,,,,
html-keyboard-response,105,129417,null,"<div style=""font-size:42px;"">BEAUTIFUL</div>",null,,word,BEAUTIFUL,,,,,,,,,,,,
html-keyboard-response,106,130918,null,"",null,,word,BEAUTIFUL,,,,,,,,,,,,
html-keyboard-response,107,132327,1408.5999999046326,"<p> Good job! You responded correctly to 100% of the trials. </p>
                    <p>Be sure to only press the spacebar if you see a red square, and please keep your accuracy above 80%.</p>
                    <p>Press any key to begin the math and recall sections. Thank you! </p>",32,,,,,,,,,,,,,,,
call-function,108,132328,,"",,,,,,,,,,,,,,,,
html-keyboard-response,109,132429,null,"",null,,,,,,,,,,,,,,,
math-period,110,139727,12419.5,"",,,,,,,,,,,5numpad,,,,,
html-keyboard-response,111,139830,null,"",null,,,,,,,,,,,,,,,
math-period,112,143231,6503.899999856949,"",,,,,,,,,,,5numpad,,,,,
html-keyboard-response,113,143332,null,"",null,,,,,,,,,,,,,,,
math-period,114,145079,3268.5,"",,,,,,,,,,,4numpad,,,,,
html-keyboard-response,115,145181,null,"",null,,,,,,,,,,,,,,,
math-period,116,148231,5435.699999809265,"",,,,,,,,,,,1numpad,,,,,
html-keyboard-response,117,148333,null,"",null,,,,,,,,,,,,,,,
math-period,118,150911,4931,"",,,,,,,,,,,2numpad,,,,,
html-keyboard-response,119,151013,null,"",null,,,,,,,,,,,,,,,
math-period,120,152687,3138.2999999523163,"",,,,,,,,,,,1numpad,,,,,
html-keyboard-response,121,152788,null,"",null,,,,,,,,,,,,,,,
math-period,122,154063,2332.5000002384186,"",,,,,,,,,,,3numpad,,,,,
html-keyboard-response,123,154165,null,"",null,,,,,,,,,,,,,,,
math-period,124,156239,3882.300000190735,"",,,,,,,,,,,3numpad,,,,,
html-keyboard-response,125,156342,null,"",null,,,,,,,,,,,,,,,
math-period,126,156344,null,"",,,,,,,,,,,,,,,,
html-keyboard-response,127,157345,null,"Recall Period!",null,,,,,,,,,,,,,,,
call-function,128,157345,,"",,,,,,,,,,,,,,,,
html-keyboard-response,129,157447,null,"",null,,,,,,,,,,,,,,,
recall-period,130,165991,47565.2000002861,"",,,,,,,,,,,happy,,,,,
html-keyboard-response,131,166093,null,"",null,,,,,,,,,,,,,,,
recall-period,132,167039,2456.3999996185303,"",,,,,,,,,,,cold,,,,,
html-keyboard-response,133,167140,null,"",null,,,,,,,,,,,,,,,
recall-period,134,168559,4587.699999809265,"",,,,,,,,,,,heavy,,,,,
html-keyboard-response,135,168661,null,"",null,,,,,,,,,,,,,,,
recall-period,136,171479,12164.80000114441,"",,,,,,,,,,,wealthy,,,,,
html-keyboard-response,137,171582,null,"",null,,,,,,,,,,,,,,,
recall-period,138,177511,32683.799999952316,"",,,,,,,,,,,tired,,,,,
html-keyboard-response,139,177613,null,"",null,,,,,,,,,,,,,,,
recall-period,140,178839,4881.800000667572,"",,,,,,,,,,,wealthy,,,,,
html-keyboard-response,141,178940,null,"",null,,,,,,,,,,,,,,,
recall-period,142,232347,null,"",,,,,,,,,,,,,,,,
html-keyboard-response,143,232849,null,"Time's Up!",null,,,,,,,,,,,,,,,
html-keyboard-response,144,237023,4173.299999952316,"<p>We will now begin the experiment!<p><p>Please try to remember all words from each list.<p><p>Press the spacebar whenever you see a red square.<p><p><p><p>Press the spacebar to begin.</p>",32,,,,,,,,,,,,,,,
html-keyboard-response,145,239887,2362.5,"<div style=""font-size:48px;"">Press any key to begin list 1 of 16 </div>",32,,,,,,,,,,,,,,,
html-keyboard-response,146,242390,null,"<div style=""font-size:60px;"">+</div>",null,,,,,,,,,,,,,,,
html-keyboard-response,147,242592,null,"<div style=""font-size:42px;"">SHOULDER</div><img id = ""stim"" ><div class = red_square id = topsquare></div>",null,encoding,word_square,,,1,topsquare,32,true,,,SHOULDER,0,,,
html-keyboard-response,148,242893,278.7999999523163,"<div style=""font-size:42px;"">SHOULDER</div>",32,,word,SHOULDER,,,,,,,,,,,,
html-keyboard-response,149,244395,null,"",null,,word,SHOULDER,,,,,,,,,,,,
html-keyboard-response,150,244597,null,"<div style=""font-size:42px;"">JUGGLER</div><img id = ""stim"" ><div class = green_square id = bottomsquare></div>",null,encoding,word_square,,,0,bottomsquare,none,true,,,JUGGLER,0,,,
html-keyboard-response,151,244899,null,"<div style=""font-size:42px;"">JUGGLER</div>",null,,word,JUGGLER,,,,,,,,,,,,
html-keyboard-response,152,246400,null,"",null,,word,JUGGLER,,,,,,,,,,,,
html-keyboard-response,153,246603,null,"<div style=""font-size:42px;"">BROOK</div><img id = ""stim"" ><div class = green_square id = topsquare></div>",null,encoding,word_square,,,0,topsquare,none,true,,,BROOK,0,,,
html-keyboard-response,154,246904,null,"<div style=""font-size:42px;"">BROOK</div>",null,,word,BROOK,,,,,,,,,,,,
html-keyboard-response,155,248406,null,"",null,,word,BROOK,,,,,,,,,,,,
html-keyboard-response,156,248608,null,"<div style=""font-size:42px;"">PAIL</div><img id = ""stim"" ><div class = red_square id = bottomsquare></div>",null,encoding,word_square,,,1,bottomsquare,32,true,,,PAIL,0,,,
html-keyboard-response,157,248910,134.30000019073486,"<div style=""font-size:42px;"">PAIL</div>",32,,word,PAIL,,,,,,,,,,,,
html-keyboard-response,158,250411,null,"",null,,word,PAIL,,,,,,,,,,,,
html-keyboard-response,159,250614,null,"<div style=""font-size:42px;"">CRADLE</div><img id = ""stim"" ><div class = green_square id = bottomsquare></div>",null,encoding,word_square,,,0,bottomsquare,none,true,,,CRADLE,0,,,
html-keyboard-response,160,250915,null,"<div style=""font-size:42px;"">CRADLE</div>",null,,word,CRADLE,,,,,,,,,,,,
html-keyboard-response,161,252417,null,"",null,,word,CRADLE,,,,,,,,,,,,
html-keyboard-response,162,252619,null,"<div style=""font-size:42px;"">FRAGRANCE</div><img id = ""stim"" ><div class = green_square id = topsquare></div>",null,encoding,word_square,,,0,topsquare,none,true,,,FRAGRANCE,0,,,
html-keyboard-response,163,252922,null,"<div style=""font-size:42px;"">FRAGRANCE</div>",null,,word,FRAGRANCE,,,,,,,,,,,,
html-keyboard-response,164,254423,null,"",null,,word,FRAGRANCE,,,,,,,,,,,,
html-keyboard-response,165,254624,null,"<div style=""font-size:42px;"">PLAZA</div><img id = ""stim"" ><div class = red_square id = topsquare></div>",null,encoding,word_square,,,1,topsquare,32,true,,,PLAZA,0,,,
html-keyboard-response,166,254926,198.29999995231628,"<div style=""font-size:42px;"">PLAZA</div>",32,,word,PLAZA,,,,,,,,,,,,
html-keyboard-response,167,256428,null,"",null,,word,PLAZA,,,,,,,,,,,,
html-keyboard-response,168,256629,null,"<div style=""font-size:42px;"">DRINK</div><img id = ""stim"" ><div class = red_square id = bottomsquare></div>",null,encoding,word_square,,,1,bottomsquare,32,true,,,DRINK,0,,,
html-keyboard-response,169,256931,145,"<div style=""font-size:42px;"">DRINK</div>",32,,word,DRINK,,,,,,,,,,,,
html-keyboard-response,170,258433,null,"",null,,word,DRINK,,,,,,,,,,,,
html-keyboard-response,171,258635,null,"<div style=""font-size:42px;"">ACTRESS</div><img id = ""stim"" ><div class = green_square id = bottomsquare></div>",null,encoding,word_square,,,0,bottomsquare,none,true,,,ACTRESS,0,,,
html-keyboard-response,172,258937,null,"<div style=""font-size:42px;"">ACTRESS</div>",null,,word,ACTRESS,,,,,,,,,,,,
html-keyboard-response,173,260439,null,"",null,,word,ACTRESS,,,,,,,,,,,,
html-keyboard-response,174,260641,null,"<div style=""font-size:42px;"">ANKLE</div><img id = ""stim"" ><div class = red_square id = topsquare></div>",null,encoding,word_square,,,1,topsquare,32,true,,,ANKLE,0,,,
html-keyboard-response,175,260943,164.59999990463257,"<div style=""font-size:42px;"">ANKLE</div>",32,,word,ANKLE,,,,,,,,,,,,
html-keyboard-response,176,262445,null,"",null,,word,ANKLE,,,,,,,,,,,,
html-keyboard-response,177,262648,null,"<div style=""font-size:42px;"">PEPPER</div><img id = ""stim"" ><div class = green_square id = topsquare></div>",null,encoding,word_square,,,0,topsquare,none,true,,,PEPPER,0,,,
html-keyboard-response,178,262950,null,"<div style=""font-size:42px;"">PEPPER</div>",null,,word,PEPPER,,,,,,,,,,,,
html-keyboard-response,179,264452,null,"",null,,word,PEPPER,,,,,,,,,,,,
html-keyboard-response,180,264653,null,"<div style=""font-size:42px;"">GARLIC</div><img id = ""stim"" ><div class = green_square id = bottomsquare></div>",null,encoding,word_square,,,0,bottomsquare,none,true,,,GARLIC,0,,,
html-keyboard-response,181,264954,null,"<div style=""font-size:42px;"">GARLIC</div>",null,,word,GARLIC,,,,,,,,,,,,
html-keyboard-response,182,266456,null,"",null,,word,GARLIC,,,,,,,,,,,,
html-keyboard-response,183,266658,null,"<div style=""font-size:42px;"">CHICKEN</div><img id = ""stim"" ><div class = red_square id = bottomsquare></div>",null,encoding,word_square,,,1,bottomsquare,32,true,,,CHICKEN,0,,,
html-keyboard-response,184,266960,164.5,"<div style=""font-size:42px;"">CHICKEN</div>",32,,word,CHICKEN,,,,,,,,,,,,
html-keyboard-response,185,268462,null,"",null,,word,CHICKEN,,,,,,,,,,,,
html-keyboard-response,186,268664,null,"<div style=""font-size:42px;"">COCOON</div><img id = ""stim"" ><div class = green_square id = topsquare></div>",null,encoding,word_square,,,0,topsquare,none,true,,,COCOON,0,,,
html-keyboard-response,187,268966,null,"<div style=""font-size:42px;"">COCOON</div>",null,,word,COCOON,,,,,,,,,,,,
html-keyboard-response,188,270467,null,"",null,,word,COCOON,,,,,,,,,,,,
html-keyboard-response,189,270669,null,"<div style=""font-size:42px;"">FACE</div><img id = ""stim"" ><div class = red_square id = topsquare></div>",null,encoding,word_square,,,1,topsquare,32,true,,,FACE,0,,,
html-keyboard-response,190,270971,193.20000004768372,"<div style=""font-size:42px;"">FACE</div>",32,,word,FACE,,,,,,,,,,,,
html-keyboard-response,191,272473,null,"",null,,word,FACE,,,,,,,,,,,,
html-keyboard-response,192,272675,null,"<div style=""font-size:42px;"">REPORT</div><img id = ""stim"" ><div class = red_square id = bottomsquare></div>",null,encoding,word_square,,,1,bottomsquare,32,true,,,REPORT,0,,,
html-keyboard-response,193,272976,163.29999995231628,"<div style=""font-size:42px;"">REPORT</div>",32,,word,REPORT,,,,,,,,,,,,
html-keyboard-response,194,274478,null,"",null,,word,REPORT,,,,,,,,,,,,
call-function,195,274479,,"",,,,,,,,,,,,,,,,
html-keyboard-response,196,274580,null,"",null,,,,,,,,,,,,,,,
math-period,197,278551,7605,"",,,,,,,,,,,3numpad,,,,,
html-keyboard-response,198,278654,null,"",null,,,,,,,,,,,,,,,
math-period,199,280095,2704.4999997615814,"",,,,,,,,,,,2numpad,,,,,
html-keyboard-response,200,280197,null,"",null,,,,,,,,,,,,,,,
math-period,201,281503,2474.2000000476837,"",,,,,,,,,,,4numpad,,,,,
html-keyboard-response,202,281605,null,"",null,,,,,,,,,,,,,,,
math-period,203,282855,2353.399999856949,"",,,,,,,,,,,4numpad,,,,,
html-keyboard-response,204,282956,null,"",null,,,,,,,,,,,,,,,
math-period,205,284791,3220.5,"",,,,,,,,,,,2numpad,,,,,
html-keyboard-response,206,284893,null,"",null,,,,,,,,,,,,,,,
math-period,207,286223,2497.4000000953674,"",,,,,,,,,,,4numpad,,,,,
html-keyboard-response,208,286325,null,"",null,,,,,,,,,,,,,,,
math-period,209,287415,2041.5999999046326,"",,,,,,,,,,,3numpad,,,,,
html-keyboard-response,210,287516,null,"",null,,,,,,,,,,,,,,,
math-period,211,288815,2459.5,"",,,,,,,,,,,4numpad,,,,,
html-keyboard-response,212,288917,null,"",null,,,,,,,,,,,,,,,
math-period,213,289895,1787.2000000476837,"",,,,,,,,,,,3numpad,,,,,
html-keyboard-response,214,289997,null,"",null,,,,,,,,,,,,,,,
math-period,215,291135,2177.899999856949,"",,,,,,,,,,,2numpad,,,,,
html-keyboard-response,216,291237,null,"",null,,,,,,,,,,,,,,,
math-period,217,292703,2578.9999997615814,"",,,,,,,,,,,6numpad,,,,,
html-keyboard-response,218,292806,null,"",null,,,,,,,,,,,,,,,
math-period,219,294119,2472.599999666214,"",,,,,,,,,,,1numpad,,,,,
html-keyboard-response,220,294221,null,"",null,,,,,,,,,,,,,,,
math-period,221,296519,4386.699999809265,"",,,,,,,,,,,1numpad,,,,,
html-keyboard-response,222,296621,null,"",null,,,,,,,,,,,,,,,
math-period,223,297647,1922.5000002384186,"",,,,,,,,,,,3numpad,,,,,
html-keyboard-response,224,297750,null,"",null,,,,,,,,,,,,,,,
math-period,225,298480,null,"",,,,,,,,,,,,,,,,
html-keyboard-response,226,299482,null,"Recall Period!",null,,,,,,,,,,,,,,,
call-function,227,299482,,"",,,,,,,,,,,,,,,,
html-keyboard-response,228,299583,null,"",null,,,,,,,,,,,,,,,
recall-period,229,302655,19147.39999985695,"",,,,,,,,,,,shoulder,,,,,
html-keyboard-response,230,302757,null,"",null,,,,,,,,,,,,,,,
recall-period,231,303647,2646.3999993801117,"",,,,,,,,,,,pail,,,,,
html-keyboard-response,232,303750,null,"",null,,,,,,,,,,,,,,,
recall-period,233,304871,3946.2000002861023,"",,,,,,,,,,,plaza,,,,,
html-keyboard-response,234,304972,null,"",null,,,,,,,,,,,,,,,
recall-period,235,305855,2692.800000667572,"",,,,,,,,,,,drinl,,,,,
html-keyboard-response,236,305957,null,"",null,,,,,,,,,,,,,,,
recall-period,237,307751,8678.300000429153,"",,,,,,,,,,,drink,,,,,
html-keyboard-response,238,307853,null,"",null,,,,,,,,,,,,,,,
recall-period,239,310671,21603.50000023842,"",,,,,,,,,,,chicken,,,,,
html-keyboard-response,240,310773,null,"",null,,,,,,,,,,,,,,,
recall-period,241,311983,4192.100000143051,"",,,,,,,,,,,pepper,,,,,
html-keyboard-response,242,312085,null,"",null,,,,,,,,,,,,,,,
recall-period,243,313207,4402.199999332428,"",,,,,,,,,,,garlic,,,,,
html-keyboard-response,244,313308,null,"",null,,,,,,,,,,,,,,,
recall-period,245,316791,3481.7000000476837,"",,,,,,,,,,,,,,,,
html-keyboard-response,246,316892,null,"",null,,,,,,,,,,,,,,,
recall-period,247,374484,null,"",,,,,,,,,,,,,,,,
html-keyboard-response,248,374986,null,"Time's Up!",null,,,,,,,,,,,,,,,
html-keyboard-response,249,378320,3332.600000143051,"<p> Good job! You have responded correctly to 100% of the trials. </p>
                      <p>Be sure to only press the spacebar if you see a red square, and please keep your accuracy above 80%.</p>
                      <p> Press any key to continue the experiment. </p>",32,,,,,,,,,,,,,,,
html-keyboard-response,250,379400,1078.7000000476837,"<div style=""font-size:48px;"">Press any key to begin list 2 of 16 </div>",32,,,,,,,,,,,,,,,
html-keyboard-response,251,381902,null,"<div style=""font-size:60px;"">+</div>",null,,,,,,,,,,,,,,,
html-keyboard-response,252,382104,null,"<div style=""font-size:42px;"">ISLAND</div><img id = ""stim"" ><div class = red_square id = bottomsquare></div>",null,encoding,word_square,,,1,bottomsquare,32,true,,,ISLAND,1,,,
html-keyboard-response,253,382406,174.69999980926514,"<div style=""font-size:42px;"">ISLAND</div>",32,,word,ISLAND,,,,,,,,,,,,
html-keyboard-response,254,383908,1296.8999998569489,"",32,,word,ISLAND,,,,,,,,,,,,
html-keyboard-response,255,384110,null,"<div style=""font-size:42px;"">SERPENT</div><img id = ""stim"" ><div class = red_square id = topsquare></div>",null,encoding,word_square,,,1,topsquare,32,true,,,SERPENT,1,,,
html-keyboard-response,256,384411,161.20000004768372,"<div style=""font-size:42px;"">SERPENT</div>",32,,word,SERPENT,,,,,,,,,,,,
html-keyboard-response,257,385913,null,"",null,,word,SERPENT,,,,,,,,,,,,
html-keyboard-response,258,386115,null,"<div style=""font-size:42px;"">BELT</div><img id = ""stim"" ><div class = green_square id = topsquare></div>",null,encoding,word_square,,,0,topsquare,none,true,,,BELT,1,,,
html-keyboard-response,259,386417,null,"<div style=""font-size:42px;"">BELT</div>",null,,word,BELT,,,,,,,,,,,,
html-keyboard-response,260,387918,null,"",null,,word,BELT,,,,,,,,,,,,
html-keyboard-response,261,388121,null,"<div style=""font-size:42px;"">VALVE</div><img id = ""stim"" ><div class = red_square id = bottomsquare></div>",null,encoding,word_square,,,1,bottomsquare,32,true,,,VALVE,1,,,
html-keyboard-response,262,388422,158.20000004768372,"<div style=""font-size:42px;"">VALVE</div>",32,,word,VALVE,,,,,,,,,,,,
html-keyboard-response,263,389924,null,"",null,,word,VALVE,,,,,,,,,,,,
html-keyboard-response,264,390126,null,"<div style=""font-size:42px;"">HOOD</div><img id = ""stim"" ><div class = green_square id = bottomsquare></div>",null,encoding,word_square,,,0,bottomsquare,none,true,,,HOOD,1,,,
html-keyboard-response,265,390428,null,"<div style=""font-size:42px;"">HOOD</div>",null,,word,HOOD,,,,,,,,,,,,
html-keyboard-response,266,391930,null,"",null,,word,HOOD,,,,,,,,,,,,
html-keyboard-response,267,392134,null,"<div style=""font-size:42px;"">DENTIST</div><img id = ""stim"" ><div class = green_square id = topsquare></div>",null,encoding,word_square,,,0,topsquare,none,true,,,DENTIST,1,,,
html-keyboard-response,268,392436,null,"<div style=""font-size:42px;"">DENTIST</div>",null,,word,DENTIST,,,,,,,,,,,,
html-keyboard-response,269,393938,null,"",null,,word,DENTIST,,,,,,,,,,,,
html-keyboard-response,270,394140,null,"<div style=""font-size:42px;"">BRACES</div><img id = ""stim"" ><div class = red_square id = topsquare></div>",null,encoding,word_square,,,1,topsquare,32,true,,,BRACES,1,,,
html-keyboard-response,271,394441,114.79999995231628,"<div style=""font-size:42px;"">BRACES</div>",32,,word,BRACES,,,,,,,,,,,,
html-keyboard-response,272,395943,null,"",null,,word,BRACES,,,,,,,,,,,,
html-keyboard-response,273,396145,null,"<div style=""font-size:42px;"">TRUCK</div><img id = ""stim"" ><div class = green_square id = bottomsquare></div>",null,encoding,word_square,,,0,bottomsquare,none,true,,,TRUCK,1,,,
html-keyboard-response,274,396448,null,"<div style=""font-size:42px;"">TRUCK</div>",null,,word,TRUCK,,,,,,,,,,,,
html-keyboard-response,275,397950,null,"",null,,word,TRUCK,,,,,,,,,,,,
html-keyboard-response,276,398152,null,"<div style=""font-size:42px;"">STOVE</div><img id = ""stim"" ><div class = red_square id = bottomsquare></div>",null,encoding,word_square,,,1,bottomsquare,32,true,,,STOVE,1,,,
html-keyboard-response,277,398454,150.59999990463257,"<div style=""font-size:42px;"">STOVE</div>",32,,word,STOVE,,,,,,,,,,,,
html-keyboard-response,278,399956,null,"",null,,word,STOVE,,,,,,,,,,,,
html-keyboard-response,279,400157,null,"<div style=""font-size:42px;"">SUNSET</div><img id = ""stim"" ><div class = red_square id = topsquare></div>",null,encoding,word_square,,,1,topsquare,32,true,,,SUNSET,1,,,
html-keyboard-response,280,400459,177.5,"<div style=""font-size:42px;"">SUNSET</div>",32,,word,SUNSET,,,,,,,,,,,,
html-keyboard-response,281,401962,null,"",null,,word,SUNSET,,,,,,,,,,,,
html-keyboard-response,282,402164,null,"<div style=""font-size:42px;"">JOINT</div><img id = ""stim"" ><div class = green_square id = topsquare></div>",null,encoding,word_square,,,0,topsquare,none,true,,,JOINT,1,,,
html-keyboard-response,283,402466,null,"<div style=""font-size:42px;"">JOINT</div>",null,,word,JOINT,,,,,,,,,,,,
html-keyboard-response,284,403968,null,"",null,,word,JOINT,,,,,,,,,,,,
html-keyboard-response,285,404170,null,"<div style=""font-size:42px;"">DASHBOARD</div><img id = ""stim"" ><div class = green_square id = bottomsquare></div>",null,encoding,word_square,,,0,bottomsquare,none,true,,,DASHBOARD,1,,,
html-keyboard-response,286,404472,null,"<div style=""font-size:42px;"">DASHBOARD</div>",null,,word,DASHBOARD,,,,,,,,,,,,
html-keyboard-response,287,405974,null,"",null,,word,DASHBOARD,,,,,,,,,,,,
html-keyboard-response,288,406176,null,"<div style=""font-size:42px;"">COOK</div><img id = ""stim"" ><div class = red_square id = bottomsquare></div>",null,encoding,word_square,,,1,bottomsquare,32,true,,,COOK,1,,,
html-keyboard-response,289,406478,158.70000004768372,"<div style=""font-size:42px;"">COOK</div>",32,,word,COOK,,,,,,,,,,,,
html-keyboard-response,290,407980,null,"",null,,word,COOK,,,,,,,,,,,,
html-keyboard-response,291,408182,null,"<div style=""font-size:42px;"">CONVENT</div><img id = ""stim"" ><div class = green_square id = topsquare></div>",null,encoding,word_square,,,0,topsquare,none,true,,,CONVENT,1,,,
html-keyboard-response,292,408484,null,"<div style=""font-size:42px;"">CONVENT</div>",null,,word,CONVENT,,,,,,,,,,,,
html-keyboard-response,293,409986,null,"",null,,word,CONVENT,,,,,,,,,,,,
html-keyboard-response,294,410188,null,"<div style=""font-size:42px;"">WORKER</div><img id = ""stim"" ><div class = green_square id = bottomsquare></div>",null,encoding,word_square,,,0,bottomsquare,none,true,,,WORKER,1,,,
html-keyboard-response,295,410490,null,"<div style=""font-size:42px;"">WORKER</div>",null,,word,WORKER,,,,,,,,,,,,
html-keyboard-response,296,411992,null,"",null,,word,WORKER,,,,,,,,,,,,
html-keyboard-response,297,412194,null,"<div style=""font-size:42px;"">COMET</div><img id = ""stim"" ><div class = red_square id = topsquare></div>",null,encoding,word_square,,,1,topsquare,32,true,,,COMET,1,,,
html-keyboard-response,298,412495,253.20000004768372,"<div style=""font-size:42px;"">COMET</div>",32,,word,COMET,,,,,,,,,,,,
html-keyboard-response,299,413998,null,"",null,,word,COMET,,,,,,,,,,,,
call-function,300,413998,,"",,,,,,,,,,,,,,,,
html-keyboard-response,301,414100,null,"",null,,,,,,,,,,,,,,,
math-period,302,416928,5125.600000143051,"",,,,,,,,,,,2numpad,,,,,
html-keyboard-response,303,417029,null,"",null,,,,,,,,,,,,,,,
math-period,304,418400,2522.2999999523163,"",,,,,,,,,,,5numpad,,,,,
html-keyboard-response,305,418502,null,"",null,,,,,,,,,,,,,,,
math-period,306,419688,2146.4000000953674,"",,,,,,,,,,,3numpad,,,,,
html-keyboard-response,307,419790,null,"",null,,,,,,,,,,,,,,,
math-period,308,421160,2569.2999997138977,"",,,,,,,,,,,2numpad,,,,,
html-keyboard-response,309,421261,null,"",null,,,,,,,,,,,,,,,
math-period,310,422248,1819.4000000953674,"",,,,,,,,,,,6numpad,,,,,
html-keyboard-response,311,422349,null,"",null,,,,,,,,,,,,,,,
math-period,312,425239,5538.900000095367,"",,,,,,,,,,,3numpad,,,,,
html-keyboard-response,313,425341,null,"",null,,,,,,,,,,,,,,,
math-period,314,426296,1763.2000002861023,"",,,,,,,,,,,3numpad,,,,,
html-keyboard-response,315,426397,null,"",null,,,,,,,,,,,,,,,
math-period,316,427295,1689.8000001907349,"",,,,,,,,,,,2numpad,,,,,
html-keyboard-response,317,427397,null,"",null,,,,,,,,,,,,,,,
math-period,318,428944,2882.4999997615814,"",,,,,,,,,,,5numpad,,,,,
html-keyboard-response,319,429045,null,"",null,,,,,,,,,,,,,,,
math-period,320,430383,2506.5999999046326,"",,,,,,,,,,,1numpad,,,,,
html-keyboard-response,321,430485,null,"",null,,,,,,,,,,,,,,,
math-period,322,431879,2577.699999809265,"",,,,,,,,,,,1numpad,,,,,
html-keyboard-response,323,431981,null,"",null,,,,,,,,,,,,,,,
math-period,324,433583,3001.699999809265,"",,,,,,,,,,,2numpad,,,,,
html-keyboard-response,325,433685,null,"",null,,,,,,,,,,,,,,,
math-period,326,435072,2570.7999999523163,"",,,,,,,,,,,4numpad,,,,,
html-keyboard-response,327,435173,null,"",null,,,,,,,,,,,,,,,
math-period,328,436447,2386.2000000476837,"",,,,,,,,,,,4numpad,,,,,
html-keyboard-response,329,436549,null,"",null,,,,,,,,,,,,,,,
math-period,330,437503,1761.9000000953674,"",,,,,,,,,,,2numpad,,,,,
html-keyboard-response,331,437606,null,"",null,,,,,,,,,,,,,,,
math-period,332,437999,null,"",,,,,,,,,,,,,,,,
html-keyboard-response,333,439001,null,"Recall Period!",null,,,,,,,,,,,,,,,
call-function,334,439001,,"",,,,,,,,,,,,,,,,
html-keyboard-response,335,439102,null,"",null,,,,,,,,,,,,,,,
recall-period,336,441439,11056.200000047684,"",,,,,,,,,,,island,,,,,
html-keyboard-response,337,441541,null,"",null,,,,,,,,,,,,,,,
recall-period,338,443439,5313.5,"",,,,,,,,,,,valve,,,,,
html-keyboard-response,339,443541,null,"",null,,,,,,,,,,,,,,,
recall-period,340,444615,2688.4999992847443,"",,,,,,,,,,,cook,,,,,
html-keyboard-response,341,444717,null,"",null,,,,,,,,,,,,,,,
recall-period,342,446007,4967.400000572205,"",,,,,,,,,,,serpent,,,,,
html-keyboard-response,343,446109,null,"",null,,,,,,,,,,,,,,,
recall-period,344,447079,3295.199999332428,"",,,,,,,,,,,comet,,,,,
html-keyboard-response,345,447181,null,"",null,,,,,,,,,,,,,,,
recall-period,346,514004,null,"",,,,,,,,,,,,,,,,
html-keyboard-response,347,514505,null,"Time's Up!",null,,,,,,,,,,,,,,,
html-keyboard-response,348,516176,1669.2999999523163,"<p> Good job! You have responded correctly to 100% of the trials. </p>
                      <p>Be sure to only press the spacebar if you see a red square, and please keep your accuracy above 80%.</p>
                      <p> Press any key to continue the experiment. </p>",32,,,,,,,,,,,,,,,
html-keyboard-response,349,516839,662.9000000953674,"<div style=""font-size:48px;"">Press any key to begin list 3 of 16 </div>",32,,,,,,,,,,,,,,,
html-keyboard-response,350,519342,null,"<div style=""font-size:60px;"">+</div>",null,,,,,,,,,,,,,,,
html-keyboard-response,351,519545,null,"<div style=""font-size:42px;"">TILE</div><img id = ""stim"" ><div class = green_square id = bottomsquare></div>",null,encoding,word_square,,,0,bottomsquare,none,true,,,TILE,2,,,
html-keyboard-response,352,519846,null,"<div style=""font-size:42px;"">TILE</div>",null,,word,TILE,,,,,,,,,,,,
html-keyboard-response,353,521349,null,"",null,,word,TILE,,,,,,,,,,,,
html-keyboard-response,354,521550,null,"<div style=""font-size:42px;"">PREACHER</div><img id = ""stim"" ><div class = red_square id = topsquare></div>",null,encoding,word_square,,,1,topsquare,32,true,,,PREACHER,2,,,
html-keyboard-response,355,521852,208.29999995231628,"<div style=""font-size:42px;"">PREACHER</div>",32,,word,PREACHER,,,,,,,,,,,,
html-keyboard-response,356,523354,null,"",null,,word,PREACHER,,,,,,,,,,,,
html-keyboard-response,357,523555,null,"<div style=""font-size:42px;"">IDOL</div><img id = ""stim"" ><div class = red_square id = bottomsquare></div>",null,encoding,word_square,,,1,bottomsquare,32,true,,,IDOL,2,,,
html-keyboard-response,358,523857,null,"<div style=""font-size:42px;"">IDOL</div>",null,,word,IDOL,,,,,,,,,,,,
html-keyboard-response,359,525359,13.899999856948853,"",32,,word,IDOL,,,,,,,,,,,,
html-keyboard-response,360,525561,null,"<div style=""font-size:42px;"">TROUSERS</div><img id = ""stim"" ><div class = green_square id = topsquare></div>",null,encoding,word_square,,,0,topsquare,none,true,,,TROUSERS,2,,,
html-keyboard-response,361,525863,null,"<div style=""font-size:42px;"">TROUSERS</div>",null,,word,TROUSERS,,,,,,,,,,,,
html-keyboard-response,362,527365,null,"",null,,word,TROUSERS,,,,,,,,,,,,
html-keyboard-response,363,527566,null,"<div style=""font-size:42px;"">GLASS</div><img id = ""stim"" ><div class = red_square id = topsquare></div>",null,encoding,word_square,,,1,topsquare,32,true,,,GLASS,2,,,
html-keyboard-response,364,527868,160.79999995231628,"<div style=""font-size:42px;"">GLASS</div>",32,,word,GLASS,,,,,,,,,,,,
html-keyboard-response,365,529370,null,"",null,,word,GLASS,,,,,,,,,,,,
html-keyboard-response,366,529572,null,"<div style=""font-size:42px;"">VIRUS</div><img id = ""stim"" ><div class = red_square id = bottomsquare></div>",null,encoding,word_square,,,1,bottomsquare,32,true,,,VIRUS,2,,,
html-keyboard-response,367,529874,null,"<div style=""font-size:42px;"">VIRUS</div>",null,,word,VIRUS,,,,,,,,,,,,
html-keyboard-response,368,531375,4.699999809265137,"",32,,word,VIRUS,,,,,,,,,,,,
html-keyboard-response,369,531577,null,"<div style=""font-size:42px;"">SADDLE</div><img id = ""stim"" ><div class = green_square id = bottomsquare></div>",null,encoding,word_square,,,0,bottomsquare,none,true,,,SADDLE,2,,,
html-keyboard-response,370,531879,null,"<div style=""font-size:42px;"">SADDLE</div>",null,,word,SADDLE,,,,,,,,,,,,
html-keyboard-response,371,533381,null,"",null,,word,SADDLE,,,,,,,,,,,,
html-keyboard-response,372,533583,null,"<div style=""font-size:42px;"">BOULDER</div><img id = ""stim"" ><div class = green_square id = topsquare></div>",null,encoding,word_square,,,0,topsquare,none,true,,,BOULDER,2,,,
html-keyboard-response,373,533886,null,"<div style=""font-size:42px;"">BOULDER</div>",null,,word,BOULDER,,,,,,,,,,,,
html-keyboard-response,374,535388,null,"",null,,word,BOULDER,,,,,,,,,,,,
html-keyboard-response,375,535591,null,"<div style=""font-size:42px;"">STONE</div><img id = ""stim"" ><div class = red_square id = topsquare></div>",null,encoding,word_square,,,1,topsquare,32,true,,,STONE,2,,,
html-keyboard-response,376,535893,159.79999995231628,"<div style=""font-size:42px;"">STONE</div>",32,,word,STONE,,,,,,,,,,,,
html-keyboard-response,377,537394,null,"",null,,word,STONE,,,,,,,,,,,,
html-keyboard-response,378,537595,null,"<div style=""font-size:42px;"">PICNIC</div><img id = ""stim"" ><div class = green_square id = bottomsquare></div>",null,encoding,word_square,,,0,bottomsquare,none,true,,,PICNIC,2,,,
html-keyboard-response,379,537896,null,"<div style=""font-size:42px;"">PICNIC</div>",null,,word,PICNIC,,,,,,,,,,,,
html-keyboard-response,380,539398,null,"",null,,word,PICNIC,,,,,,,,,,,,
html-keyboard-response,381,539600,null,"<div style=""font-size:42px;"">STRING</div><img id = ""stim"" ><div class = red_square id = bottomsquare></div>",null,encoding,word_square,,,1,bottomsquare,32,true,,,STRING,2,,,
html-keyboard-response,382,539901,190.59999990463257,"<div style=""font-size:42px;"">STRING</div>",32,,word,STRING,,,,,,,,,,,,
html-keyboard-response,383,541403,null,"",null,,word,STRING,,,,,,,,,,,,
html-keyboard-response,384,541606,null,"<div style=""font-size:42px;"">CLIMBER</div><img id = ""stim"" ><div class = red_square id = topsquare></div>",null,encoding,word_square,,,1,topsquare,32,true,,,CLIMBER,2,,,
html-keyboard-response,385,541907,257.09999990463257,"<div style=""font-size:42px;"">CLIMBER</div>",32,,word,CLIMBER,,,,,,,,,,,,
html-keyboard-response,386,543408,null,"",null,,word,CLIMBER,,,,,,,,,,,,
html-keyboard-response,387,543610,null,"<div style=""font-size:42px;"">CANYON</div><img id = ""stim"" ><div class = green_square id = topsquare></div>",null,encoding,word_square,,,0,topsquare,none,true,,,CANYON,2,,,
html-keyboard-response,388,543912,null,"<div style=""font-size:42px;"">CANYON</div>",null,,word,CANYON,,,,,,,,,,,,
html-keyboard-response,389,545413,null,"",null,,word,CANYON,,,,,,,,,,,,
html-keyboard-response,390,545615,null,"<div style=""font-size:42px;"">SLOPE</div><img id = ""stim"" ><div class = red_square id = bottomsquare></div>",null,encoding,word_square,,,1,bottomsquare,32,true,,,SLOPE,2,,,
html-keyboard-response,391,545917,223.40000009536743,"<div style=""font-size:42px;"">SLOPE</div>",32,,word,SLOPE,,,,,,,,,,,,
html-keyboard-response,392,547418,null,"",null,,word,SLOPE,,,,,,,,,,,,
html-keyboard-response,393,547620,null,"<div style=""font-size:42px;"">GIRAFFE</div><img id = ""stim"" ><div class = green_square id = bottomsquare></div>",null,encoding,word_square,,,0,bottomsquare,none,true,,,GIRAFFE,2,,,
html-keyboard-response,394,547923,null,"<div style=""font-size:42px;"">GIRAFFE</div>",null,,word,GIRAFFE,,,,,,,,,,,,
html-keyboard-response,395,549425,null,"",null,,word,GIRAFFE,,,,,,,,,,,,
html-keyboard-response,396,549627,null,"<div style=""font-size:42px;"">PEBBLE</div><img id = ""stim"" ><div class = green_square id = topsquare></div>",null,encoding,word_square,,,0,topsquare,none,true,,,PEBBLE,2,,,
html-keyboard-response,397,549929,null,"<div style=""font-size:42px;"">PEBBLE</div>",null,,word,PEBBLE,,,,,,,,,,,,
html-keyboard-response,398,551431,null,"",null,,word,PEBBLE,,,,,,,,,,,,
call-function,399,551431,,"",,,,,,,,,,,,,,,,
html-keyboard-response,400,551532,null,"",null,,,,,,,,,,,,,,,
math-period,401,553767,3732.5,"",,,,,,,,,,,3numpad,,,,,
html-keyboard-response,402,553868,null,"",null,,,,,,,,,,,,,,,
math-period,403,556111,4268.400000095367,"",,,,,,,,,,,1numpad,,,,,
html-keyboard-response,404,556213,null,"",null,,,,,,,,,,,,,,,
math-period,405,557167,1729.2999997138977,"",,,,,,,,,,,5numpad,,,,,
html-keyboard-response,406,557268,null,"",null,,,,,,,,,,,,,,,
math-period,407,558271,1803.5999999046326,"",,,,,,,,,,,2numpad,,,,,
html-keyboard-response,408,558372,null,"",null,,,,,,,,,,,,,,,
math-period,409,559615,2332.2000000476837,"",,,,,,,,,,,1numpad,,,,,
html-keyboard-response,410,559716,null,"",null,,,,,,,,,,,,,,,
math-period,411,561047,2515.2000002861023,"",,,,,,,,,,,5numpad,,,,,
html-keyboard-response,412,561148,null,"",null,,,,,,,,,,,,,,,
math-period,413,562095,1772.0999999046326,"",,,,,,,,,,,3numpad,,,,,
html-keyboard-response,414,562197,null,"",null,,,,,,,,,,,,,,,
math-period,415,563487,2442.100000143051,"",,,,,,,,,,,1numpad,,,,,
html-keyboard-response,416,563588,null,"",null,,,,,,,,,,,,,,,
math-period,417,565991,4564,"",,,,,,,,,,,3numpad,,,,,
html-keyboard-response,418,566092,null,"",null,,,,,,,,,,,,,,,
math-period,419,567143,1963.7000000476837,"",,,,,,,,,,,3numpad,,,,,
html-keyboard-response,420,567245,null,"",null,,,,,,,,,,,,,,,
math-period,421,568247,1874.8000001907349,"",,,,,,,,,,,5numpad,,,,,
html-keyboard-response,422,568348,null,"",null,,,,,,,,,,,,,,,
math-period,423,569191,1571.9000000953674,"",,,,,,,,,,,3numpad,,,,,
html-keyboard-response,424,569292,null,"",null,,,,,,,,,,,,,,,
math-period,425,570263,1788.1999998092651,"",,,,,,,,,,,6numpad,,,,,
html-keyboard-response,426,570364,null,"",null,,,,,,,,,,,,,,,
math-period,427,571863,2692.7000000476837,"",,,,,,,,,,,2numpad,,,,,
html-keyboard-response,428,571964,null,"",null,,,,,,,,,,,,,,,
math-period,429,572951,1819.7999997138977,"",,,,,,,,,,,3numpad,,,,,
html-keyboard-response,430,573052,null,"",null,,,,,,,,,,,,,,,
math-period,431,573927,1595.7000000476837,"",,,,,,,,,,,3numpad,,,,,
html-keyboard-response,432,574029,null,"",null,,,,,,,,,,,,,,,
math-period,433,574991,1810.5000002384186,"",,,,,,,,,,,6numpad,,,,,
html-keyboard-response,434,575092,null,"",null,,,,,,,,,,,,,,,
math-period,435,575432,null,"",,,,,,,,,,,,,,,,
html-keyboard-response,436,576433,null,"Recall Period!",null,,,,,,,,,,,,,,,
call-function,437,576433,,"",,,,,,,,,,,,,,,,
html-keyboard-response,438,576534,null,"",null,,,,,,,,,,,,,,,
recall-period,439,577519,2720.5999994277954,"",,,,,,,,,,,tile,,,,,
html-keyboard-response,440,577621,null,"",null,,,,,,,,,,,,,,,
recall-period,441,578503,2418.8999996185303,"",,,,,,,,,,,idle,,,,,
html-keyboard-response,442,578605,null,"",null,,,,,,,,,,,,,,,
recall-period,443,579855,5007.900000095367,"",,,,,,,,,,,boulder,,,,,
html-keyboard-response,444,579957,null,"",null,,,,,,,,,,,,,,,
recall-period,445,580927,3263.0999999046326,"",,,,,,,,,,,stone,,,,,
html-keyboard-response,446,581030,null,"",null,,,,,,,,,,,,,,,
recall-period,447,583463,15388.40000128746,"",,,,,,,,,,,pebble,,,,,
html-keyboard-response,448,583564,null,"",null,,,,,,,,,,,,,,,
recall-period,449,585471,10527.60000038147,"",,,,,,,,,,,climber,,,,,
html-keyboard-response,450,585573,null,"",null,,,,,,,,,,,,,,,
recall-period,451,586927,5090.200000047684,"",,,,,,,,,,,canyon,,,,,
html-keyboard-response,452,587029,null,"",null,,,,,,,,,,,,,,,
recall-period,453,651435,8681.600000143051,"",,,,,,,,,,, ,,,,,
html-keyboard-response,454,651937,null,"Time's Up!",null,,,,,,,,,,,,,,,
html-keyboard-response,455,654975,3036.7999999523163,"<p> Good job! You have responded correctly to 100% of the trials. </p>
                      <p>Be sure to only press the spacebar if you see a red square, and please keep your accuracy above 80%.</p>
                      <p> Press any key to continue the experiment. </p>",32,,,,,,,,,,,,,,,
html-keyboard-response,456,655471,494.90000009536743,"<div style=""font-size:48px;"">Press any key to begin list 4 of 16 </div>",32,,,,,,,,,,,,,,,
html-keyboard-response,457,657972,null,"<div style=""font-size:60px;"">+</div>",null,,,,,,,,,,,,,,,
html-keyboard-response,458,658175,null,"<div style=""font-size:42px;"">CIRCUS</div><img id = ""stim"" ><div class = green_square id = topsquare></div>",null,encoding,word_square,,,0,topsquare,none,true,,,CIRCUS,3,,,
html-keyboard-response,459,658477,null,"<div style=""font-size:42px;"">CIRCUS</div>",null,,word,CIRCUS,,,,,,,,,,,,
html-keyboard-response,460,659980,null,"",null,,word,CIRCUS,,,,,,,,,,,,
html-keyboard-response,461,660182,null,"<div style=""font-size:42px;"">CABLE</div><img id = ""stim"" ><div class = green_square id = bottomsquare></div>",null,encoding,word_square,,,0,bottomsquare,none,true,,,CABLE,3,,,
html-keyboard-response,462,660484,null,"<div style=""font-size:42px;"">CABLE</div>",null,,word,CABLE,,,,,,,,,,,,
html-keyboard-response,463,661986,null,"",null,,word,CABLE,,,,,,,,,,,,
html-keyboard-response,464,662188,null,"<div style=""font-size:42px;"">NEPTUNE</div><img id = ""stim"" ><div class = red_square id = bottomsquare></div>",null,encoding,word_square,,,1,bottomsquare,32,true,,,NEPTUNE,3,,,
html-keyboard-response,465,662490,161.70000004768372,"<div style=""font-size:42px;"">NEPTUNE</div>",32,,word,NEPTUNE,,,,,,,,,,,,
html-keyboard-response,466,663991,null,"",null,,word,NEPTUNE,,,,,,,,,,,,
html-keyboard-response,467,664193,null,"<div style=""font-size:42px;"">PADDLE</div><img id = ""stim"" ><div class = green_square id = topsquare></div>",null,encoding,word_square,,,0,topsquare,none,true,,,PADDLE,3,,,
html-keyboard-response,468,664494,null,"<div style=""font-size:42px;"">PADDLE</div>",null,,word,PADDLE,,,,,,,,,,,,
html-keyboard-response,469,665995,null,"",null,,word,PADDLE,,,,,,,,,,,,
html-keyboard-response,470,666197,null,"<div style=""font-size:42px;"">KEEPER</div><img id = ""stim"" ><div class = red_square id = topsquare></div>",null,encoding,word_square,,,1,topsquare,32,true,,,KEEPER,3,,,
html-keyboard-response,471,666499,145.09999990463257,"<div style=""font-size:42px;"">KEEPER</div>",32,,word,KEEPER,,,,,,,,,,,,
html-keyboard-response,472,668001,null,"",null,,word,KEEPER,,,,,,,,,,,,
html-keyboard-response,473,668203,null,"<div style=""font-size:42px;"">KITTEN</div><img id = ""stim"" ><div class = red_square id = bottomsquare></div>",null,encoding,word_square,,,1,bottomsquare,32,true,,,KITTEN,3,,,
html-keyboard-response,474,668504,171.40000009536743,"<div style=""font-size:42px;"">KITTEN</div>",32,,word,KITTEN,,,,,,,,,,,,
html-keyboard-response,475,670006,null,"",null,,word,KITTEN,,,,,,,,,,,,
html-keyboard-response,476,670208,null,"<div style=""font-size:42px;"">BOX</div><img id = ""stim"" ><div class = green_square id = bottomsquare></div>",null,encoding,word_square,,,0,bottomsquare,none,true,,,BOX,3,,,
html-keyboard-response,477,670509,null,"<div style=""font-size:42px;"">BOX</div>",null,,word,BOX,,,,,,,,,,,,
html-keyboard-response,478,672010,null,"",null,,word,BOX,,,,,,,,,,,,
html-keyboard-response,479,672212,null,"<div style=""font-size:42px;"">HIKER</div><img id = ""stim"" ><div class = red_square id = topsquare></div>",null,encoding,word_square,,,1,topsquare,32,true,,,HIKER,3,,,
html-keyboard-response,480,672515,169.5,"<div style=""font-size:42px;"">HIKER</div>",32,,word,HIKER,,,,,,,,,,,,
html-keyboard-response,481,674017,null,"",null,,word,HIKER,,,,,,,,,,,,
html-keyboard-response,482,674220,null,"<div style=""font-size:42px;"">TAXI</div><img id = ""stim"" ><div class = green_square id = topsquare></div>",null,encoding,word_square,,,0,topsquare,none,true,,,TAXI,3,,,
html-keyboard-response,483,674522,null,"<div style=""font-size:42px;"">TAXI</div>",null,,word,TAXI,,,,,,,,,,,,
html-keyboard-response,484,676024,null,"",null,,word,TAXI,,,,,,,,,,,,
html-keyboard-response,485,676226,null,"<div style=""font-size:42px;"">COUNTRY</div><img id = ""stim"" ><div class = green_square id = bottomsquare></div>",null,encoding,word_square,,,0,bottomsquare,none,true,,,COUNTRY,3,,,
html-keyboard-response,486,676527,null,"<div style=""font-size:42px;"">COUNTRY</div>",null,,word,COUNTRY,,,,,,,,,,,,
html-keyboard-response,487,678029,null,"",null,,word,COUNTRY,,,,,,,,,,,,
html-keyboard-response,488,678230,null,"<div style=""font-size:42px;"">JAPAN</div><img id = ""stim"" ><div class = red_square id = bottomsquare></div>",null,encoding,word_square,,,1,bottomsquare,32,true,,,JAPAN,3,,,
html-keyboard-response,489,678532,168,"<div style=""font-size:42px;"">JAPAN</div>",32,,word,JAPAN,,,,,,,,,,,,
html-keyboard-response,490,680034,null,"",null,,word,JAPAN,,,,,,,,,,,,
html-keyboard-response,491,680237,null,"<div style=""font-size:42px;"">HELMET</div><img id = ""stim"" ><div class = red_square id = topsquare></div>",null,encoding,word_square,,,1,topsquare,32,true,,,HELMET,3,,,
html-keyboard-response,492,680538,153.30000019073486,"<div style=""font-size:42px;"">HELMET</div>",32,,word,HELMET,,,,,,,,,,,,
html-keyboard-response,493,682040,null,"",null,,word,HELMET,,,,,,,,,,,,
html-keyboard-response,494,682242,null,"<div style=""font-size:42px;"">LIPSTICK</div><img id = ""stim"" ><div class = green_square id = topsquare></div>",null,encoding,word_square,,,0,topsquare,none,true,,,LIPSTICK,3,,,
html-keyboard-response,495,682544,null,"<div style=""font-size:42px;"">LIPSTICK</div>",null,,word,LIPSTICK,,,,,,,,,,,,
html-keyboard-response,496,684046,null,"",null,,word,LIPSTICK,,,,,,,,,,,,
html-keyboard-response,497,684248,null,"<div style=""font-size:42px;"">POWDER</div><img id = ""stim"" ><div class = red_square id = bottomsquare></div>",null,encoding,word_square,,,1,bottomsquare,32,true,,,POWDER,3,,,
html-keyboard-response,498,684549,150.40000009536743,"<div style=""font-size:42px;"">POWDER</div>",32,,word,POWDER,,,,,,,,,,,,
html-keyboard-response,499,686052,null,"",null,,word,POWDER,,,,,,,,,,,,
html-keyboard-response,500,686254,null,"<div style=""font-size:42px;"">PEDAL</div><img id = ""stim"" ><div class = red_square id = topsquare></div>",null,encoding,word_square,,,1,topsquare,32,true,,,PEDAL,3,,,
html-keyboard-response,501,686555,200.39999985694885,"<div style=""font-size:42px;"">PEDAL</div>",32,,word,PEDAL,,,,,,,,,,,,
html-keyboard-response,502,688057,null,"",null,,word,PEDAL,,,,,,,,,,,,
html-keyboard-response,503,688259,null,"<div style=""font-size:42px;"">STABLE</div><img id = ""stim"" ><div class = green_square id = bottomsquare></div>",null,encoding,word_square,,,0,bottomsquare,none,true,,,STABLE,3,,,
html-keyboard-response,504,688561,null,"<div style=""font-size:42px;"">STABLE</div>",null,,word,STABLE,,,,,,,,,,,,
html-keyboard-response,505,690063,null,"",null,,word,STABLE,,,,,,,,,,,,
call-function,506,690063,,"",,,,,,,,,,,,,,,,
html-keyboard-response,507,690164,null,"",null,,,,,,,,,,,,,,,
math-period,508,692183,3603.899999856949,"",,,,,,,,,,,5numpad,,,,,
html-keyboard-response,509,692285,null,"",null,,,,,,,,,,,,,,,
math-period,510,693311,1842.8000001907349,"",,,,,,,,,,,5numpad,,,,,
html-keyboard-response,511,693413,null,"",null,,,,,,,,,,,,,,,
math-period,512,694775,2434.2999999523163,"",,,,,,,,,,,2numpad,,,,,
html-keyboard-response,513,694876,null,"",null,,,,,,,,,,,,,,,
math-period,514,696135,2244.100000143051,"",,,,,,,,,,,5numpad,,,,,
html-keyboard-response,515,696237,null,"",null,,,,,,,,,,,,,,,
math-period,516,698991,5266.700000047684,"",,,,,,,,,,,0numpad,,,,,
html-keyboard-response,517,699092,null,"",null,,,,,,,,,,,,,,,
math-period,518,701335,4195.900000095367,"",,,,,,,,,,,4numpad,,,,,
html-keyboard-response,519,701436,null,"",null,,,,,,,,,,,,,,,
math-period,520,702503,1915.7999999523163,"",,,,,,,,,,,4numpad,,,,,
html-keyboard-response,521,702606,null,"",null,,,,,,,,,,,,,,,
math-period,522,705903,6337.099999666214,"",,,,,,,,,,,2numpad,,,,,
html-keyboard-response,523,706006,null,"",null,,,,,,,,,,,,,,,
math-period,524,707487,2720.7000002861023,"",,,,,,,,,,,4numpad,,,,,
html-keyboard-response,525,707589,null,"",null,,,,,,,,,,,,,,,
math-period,526,709239,3096.899999856949,"",,,,,,,,,,,2numpad,,,,,
html-keyboard-response,527,709340,null,"",null,,,,,,,,,,,,,,,
math-period,528,710663,2516.2000000476837,"",,,,,,,,,,,2numpad,,,,,
html-keyboard-response,529,710765,null,"",null,,,,,,,,,,,,,,,
math-period,530,711831,1977,"",,,,,,,,,,,3numpad,,,,,
html-keyboard-response,531,711932,null,"",null,,,,,,,,,,,,,,,
math-period,532,712951,1915,"",,,,,,,,,,,5numpad,,,,,
html-keyboard-response,533,713054,null,"",null,,,,,,,,,,,,,,,
math-period,534,714064,null,"",,,,,,,,,,,,,,,,
html-keyboard-response,535,715066,null,"Recall Period!",null,,,,,,,,,,,,,,,
call-function,536,715066,,"",,,,,,,,,,,,,,,,
html-keyboard-response,537,715167,null,"",null,,,,,,,,,,,,,,,
recall-period,538,716631,6406.599999666214,"",,,,,,,,,,,circus,,,,,
html-keyboard-response,539,716732,null,"",null,,,,,,,,,,,,,,,
recall-period,540,718143,4692.200000286102,"",,,,,,,,,,,cable,,,,,
html-keyboard-response,541,718245,null,"",null,,,,,,,,,,,,,,,
recall-period,542,719135,1988.8999998569489,"",,,,,,,,,,,box,,,,,
html-keyboard-response,543,719237,null,"",null,,,,,,,,,,,,,,,
recall-period,544,720839,8496.500000715256,"",,,,,,,,,,,country,,,,,
html-keyboard-response,545,720941,null,"",null,,,,,,,,,,,,,,,
recall-period,546,722335,4673.700000286102,"",,,,,,,,,,,kitten,,,,,
html-keyboard-response,547,722436,null,"",null,,,,,,,,,,,,,,,
recall-period,548,723495,3572.899999856949,"",,,,,,,,,,,japan,,,,,
html-keyboard-response,549,723597,null,"",null,,,,,,,,,,,,,,,
recall-period,550,725055,6699.499999284744,"",,,,,,,,,,,neptune,,,,,
html-keyboard-response,551,725156,null,"",null,,,,,,,,,,,,,,,
recall-period,552,790068,null,"",,,,,,,,,,,,,,,,
html-keyboard-response,553,790569,null,"Time's Up!",null,,,,,,,,,,,,,,,
html-keyboard-response,554,792535,1964.5,"<p> Good job! You have responded correctly to 100% of the trials. </p>
                      <p>Be sure to only press the spacebar if you see a red square, and please keep your accuracy above 80%.</p>
                      <p> Press any key to continue the experiment. </p>",32,,,,,,,,,,,,,,,
html-keyboard-response,555,792935,399,"<div style=""font-size:48px;"">Press any key to begin list 5 of 16 </div>",32,,,,,,,,,,,,,,,
html-keyboard-response,556,795436,null,"<div style=""font-size:60px;"">+</div>",null,,,,,,,,,,,,,,,
html-keyboard-response,557,795639,null,"<div style=""font-size:42px;"">FOSSIL</div><img id = ""stim"" ><div class = red_square id = topsquare></div>",null,encoding,word_square,,,1,topsquare,32,true,,,FOSSIL,4,,,
html-keyboard-response,558,795941,167.20000004768372,"<div style=""font-size:42px;"">FOSSIL</div>",32,,word,FOSSIL,,,,,,,,,,,,
html-keyboard-response,559,797444,null,"",null,,word,FOSSIL,,,,,,,,,,,,
html-keyboard-response,560,797646,null,"<div style=""font-size:42px;"">SPONGE</div><img id = ""stim"" ><div class = green_square id = bottomsquare></div>",null,encoding,word_square,,,0,bottomsquare,none,true,,,SPONGE,4,,,
html-keyboard-response,561,797948,null,"<div style=""font-size:42px;"">SPONGE</div>",null,,word,SPONGE,,,,,,,,,,,,
html-keyboard-response,562,799450,null,"",null,,word,SPONGE,,,,,,,,,,,,
html-keyboard-response,563,799652,null,"<div style=""font-size:42px;"">SAUSAGE</div><img id = ""stim"" ><div class = red_square id = bottomsquare></div>",null,encoding,word_square,,,1,bottomsquare,32,true,,,SAUSAGE,4,,,
html-keyboard-response,564,799954,137.5,"<div style=""font-size:42px;"">SAUSAGE</div>",32,,word,SAUSAGE,,,,,,,,,,,,
html-keyboard-response,565,801457,null,"",null,,word,SAUSAGE,,,,,,,,,,,,
html-keyboard-response,566,801659,null,"<div style=""font-size:42px;"">HUSBAND</div><img id = ""stim"" ><div class = red_square id = topsquare></div>",null,encoding,word_square,,,1,topsquare,32,true,,,HUSBAND,4,,,
html-keyboard-response,567,801961,130.89999985694885,"<div style=""font-size:42px;"">HUSBAND</div>",32,,word,HUSBAND,,,,,,,,,,,,
html-keyboard-response,568,803463,null,"",null,,word,HUSBAND,,,,,,,,,,,,
html-keyboard-response,569,803664,null,"<div style=""font-size:42px;"">VALLEY</div><img id = ""stim"" ><div class = red_square id = bottomsquare></div>",null,encoding,word_square,,,1,bottomsquare,32,true,,,VALLEY,4,,,
html-keyboard-response,570,803966,173.60000014305115,"<div style=""font-size:42px;"">VALLEY</div>",32,,word,VALLEY,,,,,,,,,,,,
html-keyboard-response,571,805469,null,"",null,,word,VALLEY,,,,,,,,,,,,
html-keyboard-response,572,805671,null,"<div style=""font-size:42px;"">SUMMIT</div><img id = ""stim"" ><div class = red_square id = topsquare></div>",null,encoding,word_square,,,1,topsquare,32,true,,,SUMMIT,4,,,
html-keyboard-response,573,805973,166.40000009536743,"<div style=""font-size:42px;"">SUMMIT</div>",32,,word,SUMMIT,,,,,,,,,,,,
html-keyboard-response,574,807476,null,"",null,,word,SUMMIT,,,,,,,,,,,,
html-keyboard-response,575,807677,null,"<div style=""font-size:42px;"">FOREHEAD</div><img id = ""stim"" ><div class = green_square id = topsquare></div>",null,encoding,word_square,,,0,topsquare,none,true,,,FOREHEAD,4,,,
html-keyboard-response,576,807979,null,"<div style=""font-size:42px;"">FOREHEAD</div>",null,,word,FOREHEAD,,,,,,,,,,,,
html-keyboard-response,577,809481,null,"",null,,word,FOREHEAD,,,,,,,,,,,,
html-keyboard-response,578,809682,null,"<div style=""font-size:42px;"">MISSILE</div><img id = ""stim"" ><div class = red_square id = bottomsquare></div>",null,encoding,word_square,,,1,bottomsquare,32,true,,,MISSILE,4,,,
html-keyboard-response,579,809984,131.70000004768372,"<div style=""font-size:42px;"">MISSILE</div>",32,,word,MISSILE,,,,,,,,,,,,
html-keyboard-response,580,811486,null,"",null,,word,MISSILE,,,,,,,,,,,,
html-keyboard-response,581,811688,null,"<div style=""font-size:42px;"">OFFICE</div><img id = ""stim"" ><div class = green_square id = bottomsquare></div>",null,encoding,word_square,,,0,bottomsquare,none,true,,,OFFICE,4,,,
html-keyboard-response,582,811989,null,"<div style=""font-size:42px;"">OFFICE</div>",null,,word,OFFICE,,,,,,,,,,,,
html-keyboard-response,583,813492,null,"",null,,word,OFFICE,,,,,,,,,,,,
html-keyboard-response,584,813693,null,"<div style=""font-size:42px;"">TYPIST</div><img id = ""stim"" ><div class = green_square id = topsquare></div>",null,encoding,word_square,,,0,topsquare,none,true,,,TYPIST,4,,,
html-keyboard-response,585,813994,null,"<div style=""font-size:42px;"">TYPIST</div>",null,,word,TYPIST,,,,,,,,,,,,
html-keyboard-response,586,815496,null,"",null,,word,TYPIST,,,,,,,,,,,,
html-keyboard-response,587,815699,null,"<div style=""font-size:42px;"">STUMP</div><img id = ""stim"" ><div class = red_square id = topsquare></div>",null,encoding,word_square,,,1,topsquare,32,true,,,STUMP,4,,,
html-keyboard-response,588,816001,186.89999985694885,"<div style=""font-size:42px;"">STUMP</div>",32,,word,STUMP,,,,,,,,,,,,
html-keyboard-response,589,817503,null,"",null,,word,STUMP,,,,,,,,,,,,
html-keyboard-response,590,817705,null,"<div style=""font-size:42px;"">SCARF</div><img id = ""stim"" ><div class = green_square id = bottomsquare></div>",null,encoding,word_square,,,0,bottomsquare,none,true,,,SCARF,4,,,
html-keyboard-response,591,818006,null,"<div style=""font-size:42px;"">SCARF</div>",null,,word,SCARF,,,,,,,,,,,,
html-keyboard-response,592,819508,null,"",null,,word,SCARF,,,,,,,,,,,,
html-keyboard-response,593,819710,null,"<div style=""font-size:42px;"">PERCH</div><img id = ""stim"" ><div class = green_square id = topsquare></div>",null,encoding,word_square,,,0,topsquare,none,true,,,PERCH,4,,,
html-keyboard-response,594,820011,null,"<div style=""font-size:42px;"">PERCH</div>",null,,word,PERCH,,,,,,,,,,,,
html-keyboard-response,595,821513,null,"",null,,word,PERCH,,,,,,,,,,,,
html-keyboard-response,596,821716,null,"<div style=""font-size:42px;"">BREAST</div><img id = ""stim"" ><div class = red_square id = bottomsquare></div>",null,encoding,word_square,,,1,bottomsquare,32,true,,,BREAST,4,,,
html-keyboard-response,597,822017,186,"<div style=""font-size:42px;"">BREAST</div>",32,,word,BREAST,,,,,,,,,,,,
html-keyboard-response,598,823520,null,"",null,,word,BREAST,,,,,,,,,,,,
html-keyboard-response,599,823721,null,"<div style=""font-size:42px;"">ROD</div><img id = ""stim"" ><div class = green_square id = bottomsquare></div>",null,encoding,word_square,,,0,bottomsquare,none,true,,,ROD,4,,,
html-keyboard-response,600,824024,null,"<div style=""font-size:42px;"">ROD</div>",null,,word,ROD,,,,,,,,,,,,
html-keyboard-response,601,825525,null,"",null,,word,ROD,,,,,,,,,,,,
html-keyboard-response,602,825728,null,"<div style=""font-size:42px;"">LAKE</div><img id = ""stim"" ><div class = green_square id = topsquare></div>",null,encoding,word_square,,,0,topsquare,none,true,,,LAKE,4,,,
html-keyboard-response,603,826029,null,"<div style=""font-size:42px;"">LAKE</div>",null,,word,LAKE,,,,,,,,,,,,
html-keyboard-response,604,827532,null,"",null,,word,LAKE,,,,,,,,,,,,
call-function,605,827533,,"",,,,,,,,,,,,,,,,
html-keyboard-response,606,827634,null,"",null,,,,,,,,,,,,,,,
math-period,607,829879,4232.700000047684,"",,,,,,,,,,,2numpad,,,,,
html-keyboard-response,608,829980,null,"",null,,,,,,,,,,,,,,,
math-period,609,831879,2996.100000143051,"",,,,,,,,,,,2numpad,,,,,
html-keyboard-response,610,831981,null,"",null,,,,,,,,,,,,,,,
math-period,611,836775,15237.200000286102,"",,,,,,,,,,,2nump4numpad,,,,,
html-keyboard-response,612,836876,null,"",null,,,,,,,,,,,,,,,
math-period,613,838807,3634.7999997138977,"",,,,,,,,,,,4numpad,,,,,
html-keyboard-response,614,838908,null,"",null,,,,,,,,,,,,,,,
math-period,615,839975,1924.2000002861023,"",,,,,,,,,,,2numpad,,,,,
html-keyboard-response,616,840077,null,"",null,,,,,,,,,,,,,,,
math-period,617,841406,2497.4999997615814,"",,,,,,,,,,,4numpad,,,,,
html-keyboard-response,618,841508,null,"",null,,,,,,,,,,,,,,,
math-period,619,842655,2059.5999999046326,"",,,,,,,,,,,5numpad,,,,,
html-keyboard-response,620,842756,null,"",null,,,,,,,,,,,,,,,
math-period,621,844295,2859.4000000953674,"",,,,,,,,,,,1numpad,,,,,
html-keyboard-response,622,844396,null,"",null,,,,,,,,,,,,,,,
math-period,623,846679,5395.700000047684,"",,,,,,,,,,,4numpad5numpad,,,,,
html-keyboard-response,624,846780,null,"",null,,,,,,,,,,,,,,,
math-period,625,849031,4292.100000143051,"",,,,,,,,,,,4numpad,,,,,
html-keyboard-response,626,849132,null,"",null,,,,,,,,,,,,,,,
math-period,627,850319,2180.0999999046326,"",,,,,,,,,,,4numpad,,,,,
html-keyboard-response,628,850420,null,"",null,,,,,,,,,,,,,,,
math-period,629,851343,1698.7999999523163,"",,,,,,,,,,,5numpad,,,,,
html-keyboard-response,630,851444,null,"",null,,,,,,,,,,,,,,,
math-period,631,851534,null,"",,,,,,,,,,,,,,,,
html-keyboard-response,632,852535,null,"Recall Period!",null,,,,,,,,,,,,,,,
call-function,633,852536,,"",,,,,,,,,,,,,,,,
html-keyboard-response,634,852638,null,"",null,,,,,,,,,,,,,,,
recall-period,635,854935,12418.599999189377,"",,,,,,,,,,,husband,,,,,
html-keyboard-response,636,855037,null,"",null,,,,,,,,,,,,,,,
recall-period,637,856767,4407.499999523163,"",,,,,,,,,,,valley,,,,,
html-keyboard-response,638,856868,null,"",null,,,,,,,,,,,,,,,
recall-period,639,858694,9389.500000238419,"",,,,,,,,,,,missle,,,,,
html-keyboard-response,640,858797,null,"",null,,,,,,,,,,,,,,,
recall-period,641,865767,26524.200000047684,"",,,,,,,,,,,rod,,,,,
html-keyboard-response,642,865868,null,"",null,,,,,,,,,,,,,,,
recall-period,643,867215,6299.89999961853,"",,,,,,,,,,,lake,,,,,
html-keyboard-response,644,867318,null,"",null,,,,,,,,,,,,,,,
recall-period,645,927538,null,"",,,,,,,,,,,,,,,,
html-keyboard-response,646,928040,null,"Time's Up!",null,,,,,,,,,,,,,,,
html-keyboard-response,647,930671,2630.4000000953674,"<p> Good job! You have responded correctly to 100% of the trials. </p>
                      <p>Be sure to only press the spacebar if you see a red square, and please keep your accuracy above 80%.</p>
                      <p> Press any key to continue the experiment. </p>",32,,,,,,,,,,,,,,,
html-keyboard-response,648,931111,438.69999980926514,"<div style=""font-size:48px;"">Press any key to begin list 6 of 16 </div>",32,,,,,,,,,,,,,,,
html-keyboard-response,649,933613,null,"<div style=""font-size:60px;"">+</div>",null,,,,,,,,,,,,,,,
html-keyboard-response,650,933815,null,"<div style=""font-size:42px;"">SOFTBALL</div><img id = ""stim"" ><div class = green_square id = topsquare></div>",null,encoding,word_square,,,0,topsquare,none,true,,,SOFTBALL,5,,,
html-keyboard-response,651,934117,null,"<div style=""font-size:42px;"">SOFTBALL</div>",null,,word,SOFTBALL,,,,,,,,,,,,
html-keyboard-response,652,935619,null,"",null,,word,SOFTBALL,,,,,,,,,,,,
html-keyboard-response,653,935821,null,"<div style=""font-size:42px;"">PECAN</div><img id = ""stim"" ><div class = green_square id = bottomsquare></div>",null,encoding,word_square,,,0,bottomsquare,none,true,,,PECAN,5,,,
html-keyboard-response,654,936123,null,"<div style=""font-size:42px;"">PECAN</div>",null,,word,PECAN,,,,,,,,,,,,
html-keyboard-response,655,937624,null,"",null,,word,PECAN,,,,,,,,,,,,
html-keyboard-response,656,937825,null,"<div style=""font-size:42px;"">PEACH</div><img id = ""stim"" ><div class = red_square id = bottomsquare></div>",null,encoding,word_square,,,1,bottomsquare,32,true,,,PEACH,5,,,
html-keyboard-response,657,938127,172.5,"<div style=""font-size:42px;"">PEACH</div>",32,,word,PEACH,,,,,,,,,,,,
html-keyboard-response,658,939630,null,"",null,,word,PEACH,,,,,,,,,,,,
html-keyboard-response,659,939833,null,"<div style=""font-size:42px;"">TURKEY</div><img id = ""stim"" ><div class = green_square id = topsquare></div>",null,encoding,word_square,,,0,topsquare,none,true,,,TURKEY,5,,,
html-keyboard-response,660,940135,null,"<div style=""font-size:42px;"">TURKEY</div>",null,,word,TURKEY,,,,,,,,,,,,
html-keyboard-response,661,941637,null,"",null,,word,TURKEY,,,,,,,,,,,,
html-keyboard-response,662,941840,null,"<div style=""font-size:42px;"">CREEK</div><img id = ""stim"" ><div class = green_square id = bottomsquare></div>",null,encoding,word_square,,,0,bottomsquare,none,true,,,CREEK,5,,,
html-keyboard-response,663,942141,null,"<div style=""font-size:42px;"">CREEK</div>",null,,word,CREEK,,,,,,,,,,,,
html-keyboard-response,664,943643,null,"",null,,word,CREEK,,,,,,,,,,,,
html-keyboard-response,665,943845,null,"<div style=""font-size:42px;"">THIMBLE</div><img id = ""stim"" ><div class = red_square id = topsquare></div>",null,encoding,word_square,,,1,topsquare,32,true,,,THIMBLE,5,,,
html-keyboard-response,666,944147,137,"<div style=""font-size:42px;"">THIMBLE</div>",32,,word,THIMBLE,,,,,,,,,,,,
html-keyboard-response,667,945648,null,"",null,,word,THIMBLE,,,,,,,,,,,,
html-keyboard-response,668,945850,null,"<div style=""font-size:42px;"">PUDDLE</div><img id = ""stim"" ><div class = green_square id = topsquare></div>",null,encoding,word_square,,,0,topsquare,none,true,,,PUDDLE,5,,,
html-keyboard-response,669,946152,null,"<div style=""font-size:42px;"">PUDDLE</div>",null,,word,PUDDLE,,,,,,,,,,,,
html-keyboard-response,670,947654,null,"",null,,word,PUDDLE,,,,,,,,,,,,
html-keyboard-response,671,947857,null,"<div style=""font-size:42px;"">NOMAD</div><img id = ""stim"" ><div class = green_square id = bottomsquare></div>",null,encoding,word_square,,,0,bottomsquare,none,true,,,NOMAD,5,,,
html-keyboard-response,672,948158,null,"<div style=""font-size:42px;"">NOMAD</div>",null,,word,NOMAD,,,,,,,,,,,,
html-keyboard-response,673,949661,null,"",null,,word,NOMAD,,,,,,,,,,,,
html-keyboard-response,674,949862,null,"<div style=""font-size:42px;"">PLANET</div><img id = ""stim"" ><div class = red_square id = bottomsquare></div>",null,encoding,word_square,,,1,bottomsquare,32,true,,,PLANET,5,,,
html-keyboard-response,675,950164,207.79999995231628,"<div style=""font-size:42px;"">PLANET</div>",32,,word,PLANET,,,,,,,,,,,,
html-keyboard-response,676,951666,null,"",null,,word,PLANET,,,,,,,,,,,,
html-keyboard-response,677,951868,null,"<div style=""font-size:42px;"">RACKET</div><img id = ""stim"" ><div class = green_square id = topsquare></div>",null,encoding,word_square,,,0,topsquare,none,true,,,RACKET,5,,,
html-keyboard-response,678,952170,null,"<div style=""font-size:42px;"">RACKET</div>",null,,word,RACKET,,,,,,,,,,,,
html-keyboard-response,679,953672,null,"",null,,word,RACKET,,,,,,,,,,,,
html-keyboard-response,680,953874,null,"<div style=""font-size:42px;"">TRUMPET</div><img id = ""stim"" ><div class = red_square id = topsquare></div>",null,encoding,word_square,,,1,topsquare,32,true,,,TRUMPET,5,,,
html-keyboard-response,681,954175,100.29999995231628,"<div style=""font-size:42px;"">TRUMPET</div>",32,,word,TRUMPET,,,,,,,,,,,,
html-keyboard-response,682,955678,null,"",null,,word,TRUMPET,,,,,,,,,,,,
html-keyboard-response,683,955880,null,"<div style=""font-size:42px;"">SKIRT</div><img id = ""stim"" ><div class = red_square id = bottomsquare></div>",null,encoding,word_square,,,1,bottomsquare,32,true,,,SKIRT,5,,,
html-keyboard-response,684,956182,null,"<div style=""font-size:42px;"">SKIRT</div>",null,,word,SKIRT,,,,,,,,,,,,
html-keyboard-response,685,957684,23.59999990463257,"",32,,word,SKIRT,,,,,,,,,,,,
html-keyboard-response,686,957887,null,"<div style=""font-size:42px;"">RIBBON</div><img id = ""stim"" ><div class = red_square id = topsquare></div>",null,encoding,word_square,,,1,topsquare,32,true,,,RIBBON,5,,,
html-keyboard-response,687,958188,215.20000004768372,"<div style=""font-size:42px;"">RIBBON</div>",32,,word,RIBBON,,,,,,,,,,,,
html-keyboard-response,688,959690,null,"",null,,word,RIBBON,,,,,,,,,,,,
html-keyboard-response,689,959892,null,"<div style=""font-size:42px;"">MATCH</div><img id = ""stim"" ><div class = red_square id = bottomsquare></div>",null,encoding,word_square,,,1,bottomsquare,32,true,,,MATCH,5,,,
html-keyboard-response,690,960194,185.5,"<div style=""font-size:42px;"">MATCH</div>",32,,word,MATCH,,,,,,,,,,,,
html-keyboard-response,691,961695,null,"",null,,word,MATCH,,,,,,,,,,,,
html-keyboard-response,692,961897,null,"<div style=""font-size:42px;"">TABLE</div><img id = ""stim"" ><div class = green_square id = bottomsquare></div>",null,encoding,word_square,,,0,bottomsquare,none,true,,,TABLE,5,,,
html-keyboard-response,693,962199,null,"<div style=""font-size:42px;"">TABLE</div>",null,,word,TABLE,,,,,,,,,,,,
html-keyboard-response,694,963701,null,"",null,,word,TABLE,,,,,,,,,,,,
html-keyboard-response,695,963903,null,"<div style=""font-size:42px;"">PADDING</div><img id = ""stim"" ><div class = red_square id = topsquare></div>",null,encoding,word_square,,,1,topsquare,32,true,,,PADDING,5,,,
html-keyboard-response,696,964205,118.70000004768372,"<div style=""font-size:42px;"">PADDING</div>",32,,word,PADDING,,,,,,,,,,,,
html-keyboard-response,697,965707,null,"",null,,word,PADDING,,,,,,,,,,,,
call-function,698,965707,,"",,,,,,,,,,,,,,,,
html-keyboard-response,699,965808,null,"",null,,,,,,,,,,,,,,,
math-period,700,968471,4946.799999952316,"",,,,,,,,,,,2numpad,,,,,
html-keyboard-response,701,968573,null,"",null,,,,,,,,,,,,,,,
math-period,702,969743,2075.4999997615814,"",,,,,,,,,,,3numpad,,,,,
html-keyboard-response,703,969845,null,"",null,,,,,,,,,,,,,,,
math-period,704,972183,3426.2000002861023,"",,,,,,,,,,,1numpad,,,,,
html-keyboard-response,705,972285,null,"",null,,,,,,,,,,,,,,,
math-period,706,973447,2042.1999998092651,"",,,,,,,,,,,5numpad,,,,,
html-keyboard-response,707,973549,null,"",null,,,,,,,,,,,,,,,
math-period,708,975719,3995.4999997615814,"",,,,,,,,,,,0numpad,,,,,
html-keyboard-response,709,975821,null,"",null,,,,,,,,,,,,,,,
math-period,710,978367,4770.800000190735,"",,,,,,,,,,,0numpad,,,,,
html-keyboard-response,711,978470,null,"",null,,,,,,,,,,,,,,,
math-period,712,979871,2497.199999809265,"",,,,,,,,,,,5numpad,,,,,
html-keyboard-response,713,979973,null,"",null,,,,,,,,,,,,,,,
math-period,714,980967,1875.1000001430511,"",,,,,,,,,,,5numpad,,,,,
html-keyboard-response,715,981068,null,"",null,,,,,,,,,,,,,,,
math-period,716,982127,1939.9999997615814,"",,,,,,,,,,,4numpad,,,,,
html-keyboard-response,717,982229,null,"",null,,,,,,,,,,,,,,,
math-period,718,983607,2546.599999666214,"",,,,,,,,,,,2numpad,,,,,
html-keyboard-response,719,983709,null,"",null,,,,,,,,,,,,,,,
math-period,720,987087,6539.099999904633,"",,,,,,,,,,,3numpad,,,,,
html-keyboard-response,721,987190,null,"",null,,,,,,,,,,,,,,,
math-period,722,988639,2632.9000000953674,"",,,,,,,,,,,4numpad,,,,,
html-keyboard-response,723,988740,null,"",null,,,,,,,,,,,,,,,
math-period,724,989709,null,"",,,,,,,,,,,,,,,,
html-keyboard-response,725,990711,null,"Recall Period!",null,,,,,,,,,,,,,,,
call-function,726,990711,,"",,,,,,,,,,,,,,,,
html-keyboard-response,727,990813,null,"",null,,,,,,,,,,,,,,,
recall-period,728,994047,25649.99999833107,"",,,,,,,,,,,peacn,,,,,
html-keyboard-response,729,994148,null,"",null,,,,,,,,,,,,,,,
recall-period,730,996663,14816.599999904633,"",,,,,,,,,,,pecan,,,,,
html-keyboard-response,731,996765,null,"",null,,,,,,,,,,,,,,,
recall-period,732,997999,3769.7000000476837,"",,,,,,,,,,,peach,,,,,
html-keyboard-response,733,998101,null,"",null,,,,,,,,,,,,,,,
recall-period,734,999592,6021.699999809265,"",,,,,,,,,,,trumpet,,,,,
html-keyboard-response,735,999693,null,"",null,,,,,,,,,,,,,,,
recall-period,736,1001679,6472.999999284744,"",,,,,,,,,,,racket,,,,,
html-keyboard-response,737,1001781,null,"",null,,,,,,,,,,,,,,,
recall-period,738,1014271,71745.20000052452,"",,,,,,,,,,,skirt,,,,,
html-keyboard-response,739,1014373,null,"",null,,,,,,,,,,,,,,,
recall-period,740,1065712,null,"",,,,,,,,,,,,,,,,
html-keyboard-response,741,1066214,null,"Time's Up!",null,,,,,,,,,,,,,,,
html-keyboard-response,742,1090974,24759.10000014305,"<p> Good job! You have responded correctly to 100% of the trials. </p>
                      <p>Be sure to only press the spacebar if you see a red square, and please keep your accuracy above 80%.</p>
                      <p> Press any key to continue the experiment. </p>",32,,,,,,,,,,,,,,,
html-keyboard-response,743,1091574,598.7000000476837,"<div style=""font-size:48px;"">Press any key to begin list 7 of 16 </div>",32,,,,,,,,,,,,,,,
html-keyboard-response,744,1094076,null,"<div style=""font-size:60px;"">+</div>",null,,,,,,,,,,,,,,,
html-keyboard-response,745,1094277,null,"<div style=""font-size:42px;"">CLAMP</div><img id = ""stim"" ><div class = green_square id = bottomsquare></div>",null,encoding,word_square,,,0,bottomsquare,none,true,,,CLAMP,6,,,
html-keyboard-response,746,1094579,264,"<div style=""font-size:42px;"">CLAMP</div>",32,,word,CLAMP,,,,,,,,,,,,
html-keyboard-response,747,1096082,null,"",null,,word,CLAMP,,,,,,,,,,,,
html-keyboard-response,748,1096284,null,"<div style=""font-size:42px;"">TWEEZERS</div><img id = ""stim"" ><div class = red_square id = topsquare></div>",null,encoding,word_square,,,1,topsquare,32,true,,,TWEEZERS,6,,,
html-keyboard-response,749,1096585,224.79999995231628,"<div style=""font-size:42px;"">TWEEZERS</div>",32,,word,TWEEZERS,,,,,,,,,,,,
html-keyboard-response,750,1098087,null,"",null,,word,TWEEZERS,,,,,,,,,,,,
html-keyboard-response,751,1098289,null,"<div style=""font-size:42px;"">WRENCH</div><img id = ""stim"" ><div class = green_square id = topsquare></div>",null,encoding,word_square,,,0,topsquare,none,true,,,WRENCH,6,,,
html-keyboard-response,752,1098591,null,"<div style=""font-size:42px;"">WRENCH</div>",null,,word,WRENCH,,,,,,,,,,,,
html-keyboard-response,753,1100094,null,"",null,,word,WRENCH,,,,,,,,,,,,
html-keyboard-response,754,1100295,null,"<div style=""font-size:42px;"">SHOVEL</div><img id = ""stim"" ><div class = green_square id = bottomsquare></div>",null,encoding,word_square,,,0,bottomsquare,none,true,,,SHOVEL,6,,,
html-keyboard-response,755,1100597,null,"<div style=""font-size:42px;"">SHOVEL</div>",null,,word,SHOVEL,,,,,,,,,,,,
html-keyboard-response,756,1102099,null,"",null,,word,SHOVEL,,,,,,,,,,,,
html-keyboard-response,757,1102301,null,"<div style=""font-size:42px;"">PRIMATE</div><img id = ""stim"" ><div class = green_square id = topsquare></div>",null,encoding,word_square,,,0,topsquare,none,true,,,PRIMATE,6,,,
html-keyboard-response,758,1102604,null,"<div style=""font-size:42px;"">PRIMATE</div>",null,,word,PRIMATE,,,,,,,,,,,,
html-keyboard-response,759,1104107,null,"",null,,word,PRIMATE,,,,,,,,,,,,
html-keyboard-response,760,1104309,null,"<div style=""font-size:42px;"">DRILL</div><img id = ""stim"" ><div class = green_square id = bottomsquare></div>",null,encoding,word_square,,,0,bottomsquare,none,true,,,DRILL,6,,,
html-keyboard-response,761,1104610,null,"<div style=""font-size:42px;"">DRILL</div>",null,,word,DRILL,,,,,,,,,,,,
html-keyboard-response,762,1106112,null,"",null,,word,DRILL,,,,,,,,,,,,
html-keyboard-response,763,1106315,null,"<div style=""font-size:42px;"">ROOSTER</div><img id = ""stim"" ><div class = red_square id = bottomsquare></div>",null,encoding,word_square,,,1,bottomsquare,32,true,,,ROOSTER,6,,,
html-keyboard-response,764,1106617,186.90000009536743,"<div style=""font-size:42px;"">ROOSTER</div>",32,,word,ROOSTER,,,,,,,,,,,,
html-keyboard-response,765,1108120,null,"",null,,word,ROOSTER,,,,,,,,,,,,
html-keyboard-response,766,1108322,null,"<div style=""font-size:42px;"">CARPET</div><img id = ""stim"" ><div class = green_square id = topsquare></div>",null,encoding,word_square,,,0,topsquare,none,true,,,CARPET,6,,,
html-keyboard-response,767,1108624,null,"<div style=""font-size:42px;"">CARPET</div>",null,,word,CARPET,,,,,,,,,,,,
html-keyboard-response,768,1110127,null,"",null,,word,CARPET,,,,,,,,,,,,
html-keyboard-response,769,1110329,null,"<div style=""font-size:42px;"">MACHINE</div><img id = ""stim"" ><div class = red_square id = topsquare></div>",null,encoding,word_square,,,1,topsquare,32,true,,,MACHINE,6,,,
html-keyboard-response,770,1110630,172.59999990463257,"<div style=""font-size:42px;"">MACHINE</div>",32,,word,MACHINE,,,,,,,,,,,,
html-keyboard-response,771,1112133,null,"",null,,word,MACHINE,,,,,,,,,,,,
html-keyboard-response,772,1112335,null,"<div style=""font-size:42px;"">POSSUM</div><img id = ""stim"" ><div class = red_square id = bottomsquare></div>",null,encoding,word_square,,,1,bottomsquare,32,true,,,POSSUM,6,,,
html-keyboard-response,773,1112637,213.89999985694885,"<div style=""font-size:42px;"">POSSUM</div>",32,,word,POSSUM,,,,,,,,,,,,
html-keyboard-response,774,1114139,null,"",null,,word,POSSUM,,,,,,,,,,,,
html-keyboard-response,775,1114341,null,"<div style=""font-size:42px;"">TROPHY</div><img id = ""stim"" ><div class = green_square id = bottomsquare></div>",null,encoding,word_square,,,0,bottomsquare,none,true,,,TROPHY,6,,,
html-keyboard-response,776,1114644,null,"<div style=""font-size:42px;"">TROPHY</div>",null,,word,TROPHY,,,,,,,,,,,,
html-keyboard-response,777,1116147,null,"",null,,word,TROPHY,,,,,,,,,,,,
html-keyboard-response,778,1116350,null,"<div style=""font-size:42px;"">UMPIRE</div><img id = ""stim"" ><div class = red_square id = topsquare></div>",null,encoding,word_square,,,1,topsquare,32,true,,,UMPIRE,6,,,
html-keyboard-response,779,1116652,168,"<div style=""font-size:42px;"">UMPIRE</div>",32,,word,UMPIRE,,,,,,,,,,,,
html-keyboard-response,780,1118154,null,"",null,,word,UMPIRE,,,,,,,,,,,,
html-keyboard-response,781,1118357,null,"<div style=""font-size:42px;"">STAKE</div><img id = ""stim"" ><div class = red_square id = bottomsquare></div>",null,encoding,word_square,,,1,bottomsquare,32,true,,,STAKE,6,,,
html-keyboard-response,782,1118658,176.40000009536743,"<div style=""font-size:42px;"">STAKE</div>",32,,word,STAKE,,,,,,,,,,,,
html-keyboard-response,783,1120161,null,"",null,,word,STAKE,,,,,,,,,,,,
html-keyboard-response,784,1120363,null,"<div style=""font-size:42px;"">BEAVER</div><img id = ""stim"" ><div class = green_square id = topsquare></div>",null,encoding,word_square,,,0,topsquare,none,true,,,BEAVER,6,,,
html-keyboard-response,785,1120665,null,"<div style=""font-size:42px;"">BEAVER</div>",null,,word,BEAVER,,,,,,,,,,,,
html-keyboard-response,786,1122168,null,"",null,,word,BEAVER,,,,,,,,,,,,
html-keyboard-response,787,1122370,null,"<div style=""font-size:42px;"">ROCKET</div><img id = ""stim"" ><div class = red_square id = topsquare></div>",null,encoding,word_square,,,1,topsquare,32,true,,,ROCKET,6,,,
html-keyboard-response,788,1122671,187.10000014305115,"<div style=""font-size:42px;"">ROCKET</div>",32,,word,ROCKET,,,,,,,,,,,,
html-keyboard-response,789,1124173,null,"",null,,word,ROCKET,,,,,,,,,,,,
html-keyboard-response,790,1124376,null,"<div style=""font-size:42px;"">SPACE</div><img id = ""stim"" ><div class = red_square id = bottomsquare></div>",null,encoding,word_square,,,1,bottomsquare,32,true,,,SPACE,6,,,
html-keyboard-response,791,1124678,237.60000014305115,"<div style=""font-size:42px;"">SPACE</div>",32,,word,SPACE,,,,,,,,,,,,
html-keyboard-response,792,1126180,null,"",null,,word,SPACE,,,,,,,,,,,,
call-function,793,1126181,,"",,,,,,,,,,,,,,,,
html-keyboard-response,794,1126283,null,"",null,,,,,,,,,,,,,,,
math-period,795,1128118,3323.899999856949,"",,,,,,,,,,,3numpad,,,,,
html-keyboard-response,796,1128221,null,"",null,,,,,,,,,,,,,,,
math-period,797,1129278,1849.0999999046326,"",,,,,,,,,,,2numpad,,,,,
html-keyboard-response,798,1129380,null,"",null,,,,,,,,,,,,,,,
math-period,799,1130790,2657.2999999523163,"",,,,,,,,,,,0numpad,,,,,
html-keyboard-response,800,1130892,null,"",null,,,,,,,,,,,,,,,
math-period,801,1131934,1914.0999999046326,"",,,,,,,,,,,5numpad,,,,,
html-keyboard-response,802,1132036,null,"",null,,,,,,,,,,,,,,,
math-period,803,1132974,1682,"",,,,,,,,,,,3numpad,,,,,
html-keyboard-response,804,1133076,null,"",null,,,,,,,,,,,,,,,
math-period,805,1134711,2793.800000190735,"",,,,,,,,,,,1numpad,,,,,
html-keyboard-response,806,1134812,null,"",null,,,,,,,,,,,,,,,
math-period,807,1136166,2523,"",,,,,,,,,,,2numpad,,,,,
html-keyboard-response,808,1136268,null,"",null,,,,,,,,,,,,,,,
math-period,809,1137350,2010.7000002861023,"",,,,,,,,,,,2numpad,,,,,
html-keyboard-response,810,1137452,null,"",null,,,,,,,,,,,,,,,
math-period,811,1138558,2041.7000000476837,"",,,,,,,,,,,5numpad,,,,,
html-keyboard-response,812,1138660,null,"",null,,,,,,,,,,,,,,,
math-period,813,1139694,1914.5999999046326,"",,,,,,,,,,,4numpad,,,,,
html-keyboard-response,814,1139796,null,"",null,,,,,,,,,,,,,,,
math-period,815,1140774,1763.5,"",,,,,,,,,,,2numpad,,,,,
html-keyboard-response,816,1140875,null,"",null,,,,,,,,,,,,,,,
math-period,817,1141976,2053.0999999046326,"",,,,,,,,,,,4numpad,,,,,
html-keyboard-response,818,1142078,null,"",null,,,,,,,,,,,,,,,
math-period,819,1143111,1886.2000002861023,"",,,,,,,,,,,5numpad,,,,,
html-keyboard-response,820,1143212,null,"",null,,,,,,,,,,,,,,,
math-period,821,1144158,1753.6000003814697,"",,,,,,,,,,,3numpad,,,,,
html-keyboard-response,822,1144260,null,"",null,,,,,,,,,,,,,,,
math-period,823,1145214,1729.9000000953674,"",,,,,,,,,,,4numpad,,,,,
html-keyboard-response,824,1145317,null,"",null,,,,,,,,,,,,,,,
math-period,825,1146566,2336.199999809265,"",,,,,,,,,,,1numpad,,,,,
html-keyboard-response,826,1146668,null,"",null,,,,,,,,,,,,,,,
math-period,827,1147910,2314.0999999046326,"",,,,,,,,,,,2numpad,,,,,
html-keyboard-response,828,1148012,null,"",null,,,,,,,,,,,,,,,
math-period,829,1149318,2481.9000000953674,"",,,,,,,,,,,1numpad,,,,,
html-keyboard-response,830,1149420,null,"",null,,,,,,,,,,,,,,,
math-period,831,1150182,null,"",,,,,,,,,,,,,,,,
html-keyboard-response,832,1151185,null,"Recall Period!",null,,,,,,,,,,,,,,,
call-function,833,1151185,,"",,,,,,,,,,,,,,,,
html-keyboard-response,834,1151286,null,"",null,,,,,,,,,,,,,,,
recall-period,835,1153087,7936.099999904633,"",,,,,,,,,,,clamp,,,,,
html-keyboard-response,836,1153188,null,"",null,,,,,,,,,,,,,,,
recall-period,837,1155559,9301.899999141693,"",,,,,,,,,,,wrench,,,,,
html-keyboard-response,838,1155660,null,"",null,,,,,,,,,,,,,,,
recall-period,839,1157350,6049.199999570847,"",,,,,,,,,,,shovel,,,,,
html-keyboard-response,840,1157452,null,"",null,,,,,,,,,,,,,,,
recall-period,841,1158415,2882.5999994277954,"",,,,,,,,,,,drill,,,,,
html-keyboard-response,842,1158516,null,"",null,,,,,,,,,,,,,,,
recall-period,843,1159502,4158.400000810623,"",,,,,,,,,,,rocket,,,,,
html-keyboard-response,844,1159605,null,"",null,,,,,,,,,,,,,,,
recall-period,845,1161047,5459.699999809265,"",,,,,,,,,,,beaver,,,,,
html-keyboard-response,846,1161148,null,"",null,,,,,,,,,,,,,,,
recall-period,847,1226186,null,"",,,,,,,,,,,,,,,,
html-keyboard-response,848,1226688,null,"Time's Up!",null,,,,,,,,,,,,,,,
html-keyboard-response,849,1233014,6324.899999856949,"<p> Good job! You have responded correctly to 100% of the trials. </p>
                      <p>Be sure to only press the spacebar if you see a red square, and please keep your accuracy above 80%.</p>
                      <p> Press any key to continue the experiment. </p>",32,,,,,,,,,,,,,,,
html-keyboard-response,850,1233478,463,"<div style=""font-size:48px;"">Press any key to begin list 8 of 16 </div>",32,,,,,,,,,,,,,,,
html-keyboard-response,851,1235980,null,"<div style=""font-size:60px;"">+</div>",null,,,,,,,,,,,,,,,
html-keyboard-response,852,1236182,null,"<div style=""font-size:42px;"">BALLOON</div><img id = ""stim"" ><div class = red_square id = bottomsquare></div>",null,encoding,word_square,,,1,bottomsquare,32,true,,,BALLOON,7,,,
html-keyboard-response,853,1236484,206.90000009536743,"<div style=""font-size:42px;"">BALLOON</div>",32,,word,BALLOON,,,,,,,,,,,,
html-keyboard-response,854,1237986,null,"",null,,word,BALLOON,,,,,,,,,,,,
html-keyboard-response,855,1238189,null,"<div style=""font-size:42px;"">PRIEST</div><img id = ""stim"" ><div class = red_square id = topsquare></div>",null,encoding,word_square,,,1,topsquare,32,true,,,PRIEST,7,,,
html-keyboard-response,856,1238490,192.29999995231628,"<div style=""font-size:42px;"">PRIEST</div>",32,,word,PRIEST,,,,,,,,,,,,
html-keyboard-response,857,1239992,null,"",null,,word,PRIEST,,,,,,,,,,,,
html-keyboard-response,858,1240193,null,"<div style=""font-size:42px;"">COBWEB</div><img id = ""stim"" ><div class = green_square id = topsquare></div>",null,encoding,word_square,,,0,topsquare,none,true,,,COBWEB,7,,,
html-keyboard-response,859,1240496,null,"<div style=""font-size:42px;"">COBWEB</div>",null,,word,COBWEB,,,,,,,,,,,,
html-keyboard-response,860,1241998,null,"",null,,word,COBWEB,,,,,,,,,,,,
html-keyboard-response,861,1242200,null,"<div style=""font-size:42px;"">BRIEFCASE</div><img id = ""stim"" ><div class = red_square id = bottomsquare></div>",null,encoding,word_square,,,1,bottomsquare,32,true,,,BRIEFCASE,7,,,
html-keyboard-response,862,1242503,165,"<div style=""font-size:42px;"">BRIEFCASE</div>",32,,word,BRIEFCASE,,,,,,,,,,,,
html-keyboard-response,863,1244005,null,"",null,,word,BRIEFCASE,,,,,,,,,,,,
html-keyboard-response,864,1244206,null,"<div style=""font-size:42px;"">TROMBONE</div><img id = ""stim"" ><div class = red_square id = topsquare></div>",null,encoding,word_square,,,1,topsquare,32,true,,,TROMBONE,7,,,
html-keyboard-response,865,1244507,166.90000009536743,"<div style=""font-size:42px;"">TROMBONE</div>",32,,word,TROMBONE,,,,,,,,,,,,
html-keyboard-response,866,1246010,null,"",null,,word,TROMBONE,,,,,,,,,,,,
html-keyboard-response,867,1246211,null,"<div style=""font-size:42px;"">MILK</div><img id = ""stim"" ><div class = green_square id = bottomsquare></div>",null,encoding,word_square,,,0,bottomsquare,none,true,,,MILK,7,,,
html-keyboard-response,868,1246512,null,"<div style=""font-size:42px;"">MILK</div>",null,,word,MILK,,,,,,,,,,,,
html-keyboard-response,869,1248014,null,"",null,,word,MILK,,,,,,,,,,,,
html-keyboard-response,870,1248215,null,"<div style=""font-size:42px;"">BEEF</div><img id = ""stim"" ><div class = red_square id = bottomsquare></div>",null,encoding,word_square,,,1,bottomsquare,32,true,,,BEEF,7,,,
html-keyboard-response,871,1248517,181.90000009536743,"<div style=""font-size:42px;"">BEEF</div>",32,,word,BEEF,,,,,,,,,,,,
html-keyboard-response,872,1250019,null,"",null,,word,BEEF,,,,,,,,,,,,
html-keyboard-response,873,1250220,null,"<div style=""font-size:42px;"">ARM</div><img id = ""stim"" ><div class = red_square id = topsquare></div>",null,encoding,word_square,,,1,topsquare,32,true,,,ARM,7,,,
html-keyboard-response,874,1250522,176.89999985694885,"<div style=""font-size:42px;"">ARM</div>",32,,word,ARM,,,,,,,,,,,,
html-keyboard-response,875,1252023,null,"",null,,word,ARM,,,,,,,,,,,,
html-keyboard-response,876,1252226,null,"<div style=""font-size:42px;"">CRUTCH</div><img id = ""stim"" ><div class = green_square id = topsquare></div>",null,encoding,word_square,,,0,topsquare,none,true,,,CRUTCH,7,,,
html-keyboard-response,877,1252527,null,"<div style=""font-size:42px;"">CRUTCH</div>",null,,word,CRUTCH,,,,,,,,,,,,
html-keyboard-response,878,1254030,null,"",null,,word,CRUTCH,,,,,,,,,,,,
html-keyboard-response,879,1254232,null,"<div style=""font-size:42px;"">FIREPLACE</div><img id = ""stim"" ><div class = red_square id = bottomsquare></div>",null,encoding,word_square,,,1,bottomsquare,32,true,,,FIREPLACE,7,,,
html-keyboard-response,880,1254534,173.29999995231628,"<div style=""font-size:42px;"">FIREPLACE</div>",32,,word,FIREPLACE,,,,,,,,,,,,
html-keyboard-response,881,1256036,null,"",null,,word,FIREPLACE,,,,,,,,,,,,
html-keyboard-response,882,1256238,null,"<div style=""font-size:42px;"">PANTHER</div><img id = ""stim"" ><div class = green_square id = bottomsquare></div>",null,encoding,word_square,,,0,bottomsquare,none,true,,,PANTHER,7,,,
html-keyboard-response,883,1256539,null,"<div style=""font-size:42px;"">PANTHER</div>",null,,word,PANTHER,,,,,,,,,,,,
html-keyboard-response,884,1258042,null,"",null,,word,PANTHER,,,,,,,,,,,,
html-keyboard-response,885,1258243,null,"<div style=""font-size:42px;"">CACTUS</div><img id = ""stim"" ><div class = green_square id = topsquare></div>",null,encoding,word_square,,,0,topsquare,none,true,,,CACTUS,7,,,
html-keyboard-response,886,1258544,null,"<div style=""font-size:42px;"">CACTUS</div>",null,,word,CACTUS,,,,,,,,,,,,
html-keyboard-response,887,1260047,null,"",null,,word,CACTUS,,,,,,,,,,,,
html-keyboard-response,888,1260249,null,"<div style=""font-size:42px;"">CARRIAGE</div><img id = ""stim"" ><div class = green_square id = bottomsquare></div>",null,encoding,word_square,,,0,bottomsquare,none,true,,,CARRIAGE,7,,,
html-keyboard-response,889,1260550,null,"<div style=""font-size:42px;"">CARRIAGE</div>",null,,word,CARRIAGE,,,,,,,,,,,,
html-keyboard-response,890,1262052,null,"",null,,word,CARRIAGE,,,,,,,,,,,,
html-keyboard-response,891,1262254,null,"<div style=""font-size:42px;"">OZONE</div><img id = ""stim"" ><div class = green_square id = topsquare></div>",null,encoding,word_square,,,0,topsquare,none,true,,,OZONE,7,,,
html-keyboard-response,892,1262555,null,"<div style=""font-size:42px;"">OZONE</div>",null,,word,OZONE,,,,,,,,,,,,
html-keyboard-response,893,1264058,null,"",null,,word,OZONE,,,,,,,,,,,,
html-keyboard-response,894,1264260,null,"<div style=""font-size:42px;"">LAUNDRY</div><img id = ""stim"" ><div class = red_square id = topsquare></div>",null,encoding,word_square,,,1,topsquare,32,true,,,LAUNDRY,7,,,
html-keyboard-response,895,1264561,193,"<div style=""font-size:42px;"">LAUNDRY</div>",32,,word,LAUNDRY,,,,,,,,,,,,
html-keyboard-response,896,1266063,null,"",null,,word,LAUNDRY,,,,,,,,,,,,
html-keyboard-response,897,1266265,null,"<div style=""font-size:42px;"">HORSE</div><img id = ""stim"" ><div class = green_square id = bottomsquare></div>",null,encoding,word_square,,,0,bottomsquare,none,true,,,HORSE,7,,,
html-keyboard-response,898,1266566,null,"<div style=""font-size:42px;"">HORSE</div>",null,,word,HORSE,,,,,,,,,,,,
html-keyboard-response,899,1268068,null,"",null,,word,HORSE,,,,,,,,,,,,
call-function,900,1268069,,"",,,,,,,,,,,,,,,,
html-keyboard-response,901,1268170,null,"",null,,,,,,,,,,,,,,,
math-period,902,1270166,3477.4000000953674,"",,,,,,,,,,,2numpad,,,,,
html-keyboard-response,903,1270268,null,"",null,,,,,,,,,,,,,,,
math-period,904,1271663,2395,"",,,,,,,,,,,4numpad,,,,,
html-keyboard-response,905,1271764,null,"",null,,,,,,,,,,,,,,,
math-period,906,1273111,2491.9000000953674,"",,,,,,,,,,,4numpad,,,,,
html-keyboard-response,907,1273213,null,"",null,,,,,,,,,,,,,,,
math-period,908,1274143,1666.3999998569489,"",,,,,,,,,,,4numpad,,,,,
html-keyboard-response,909,1274245,null,"",null,,,,,,,,,,,,,,,
math-period,910,1275191,1746.099999666214,"",,,,,,,,,,,5numpad,,,,,
html-keyboard-response,911,1275293,null,"",null,,,,,,,,,,,,,,,
math-period,912,1276415,2082.0999999046326,"",,,,,,,,,,,1numpad,,,,,
html-keyboard-response,913,1276516,null,"",null,,,,,,,,,,,,,,,
math-period,914,1277735,2306.5999999046326,"",,,,,,,,,,,1numpad,,,,,
html-keyboard-response,915,1277837,null,"",null,,,,,,,,,,,,,,,
math-period,916,1278951,2026.5,"",,,,,,,,,,,4numpad,,,,,
html-keyboard-response,917,1279053,null,"",null,,,,,,,,,,,,,,,
math-period,918,1280095,1938.1999998092651,"",,,,,,,,,,,3numpad,,,,,
html-keyboard-response,919,1280196,null,"",null,,,,,,,,,,,,,,,
math-period,920,1281199,1835.2999999523163,"",,,,,,,,,,,3numpad,,,,,
html-keyboard-response,921,1281300,null,"",null,,,,,,,,,,,,,,,
math-period,922,1282343,1971.9999997615814,"",,,,,,,,,,,2numpad,,,,,
html-keyboard-response,923,1282444,null,"",null,,,,,,,,,,,,,,,
math-period,924,1283447,1851.2999999523163,"",,,,,,,,,,,2numpad,,,,,
html-keyboard-response,925,1283549,null,"",null,,,,,,,,,,,,,,,
math-period,926,1285031,2761.7999997138977,"",,,,,,,,,,,2numpad,,,,,
html-keyboard-response,927,1285132,null,"",null,,,,,,,,,,,,,,,
math-period,928,1286439,2427.7000002861023,"",,,,,,,,,,,2numpad,,,,,
html-keyboard-response,929,1286540,null,"",null,,,,,,,,,,,,,,,
math-period,930,1288623,3987.2000000476837,"",,,,,,,,,,,3numpad,,,,,
html-keyboard-response,931,1288724,null,"",null,,,,,,,,,,,,,,,
math-period,932,1292071,null,"",,,,,,,,,,,,,,,,
html-keyboard-response,933,1293072,null,"Recall Period!",null,,,,,,,,,,,,,,,
call-function,934,1293073,,"",,,,,,,,,,,,,,,,
html-keyboard-response,935,1293174,null,"",null,,,,,,,,,,,,,,,
recall-period,936,1296247,17143.000000715256,"",,,,,,,,,,,balloon,,,,,
