trial_type,trial_index,time_elapsed,rt,stimulus,key_press,exp_phase,test_part,word,task,targ_cond,sq_pos,correctKeyCode,correct,value,response,Word,List,RecResp,serial_pos,colorChosen
pavlovia,0,2922,,"",,,,,,,,,,,,,,,,
external-html,1,7797,4680.800000071526,"",,,,,,,,,,,,,,,,
html-keyboard-response,2,9327,1528.3999999761581,"Welcome to the experiment. Press any key to begin.",13,,,,,,,,,,,,,,,
html-keyboard-response,3,18249,8920.300000071526,"<p>You will see a list of words and colored squares in the following task.<p><p>Press the spacebar whenever you see a red square.<p><p>Do not press a key if the square is green.<p><p>Press the spacebar to continue.</p>",32,,,,,,,,,,,,,,,
html-keyboard-response,4,26918,8161.5,"<p>Please try to remember as many of the words as you can, and try to think about the meaning of each word as it appears.<p><p>After the detection and encoding task you will be asked to solve some math problems for 24 seconds.<p> Please solve as many problems as you can in the time given. <p><p><p>Press the spacebar to continue.</p>",32,,,,,,,,,,,,,,,
html-keyboard-response,5,34190,6763.200000047684,"After solving the math problems, you will be asked to type in as many words <p>from the previous list as you can remember for 75 seconds.<p> If you finish recalling before the 75 seconds are up,<p> just sit tight and try to think of any more words you could have missed. <p><p><p>Press the spacebar to continue.</p>",32,,,,,,,,,,,,,,,
html-keyboard-response,6,40225,5531.600000023842,"There will be 16 lists of words and recall, followed  by<p><p> a recognition phase. The experiment is expected to take up to 90 minutes.<p>We will begin with a brief practice session.<p>Press the spacebar to begin the practice.</p>",32,,,,,,,,,,,,,,,
html-keyboard-response,7,42729,null,"<div style=""font-size:60px;"">+</div>",null,,,,,,,,,,,,,,,
html-keyboard-response,8,42932,null,"<div style=""font-size:42px;"">HAPPY</div><img id = ""stim"" ><div class = green_square id = ""bottomsquare"" ></div>",null,practice,word_square,HAPPY,prac_response,0,Bottom,none,true,,,,,,,
html-keyboard-response,9,43234,null,"<div style=""font-size:42px;"">HAPPY</div>",null,,word,HAPPY,,,,,,,,,,,,
html-keyboard-response,10,44738,null,"",null,,word,HAPPY,,,,,,,,,,,,
html-keyboard-response,11,44941,null,"<div style=""font-size:42px;"">COLD</div><img id = ""stim"" ><div class = red_square id = ""bottomsquare"" ></div>",null,practice,word_square,COLD,prac_response,1,Bottom,32,true,,,,,,,
html-keyboard-response,12,45243,215.29999995231628,"<div style=""font-size:42px;"">COLD</div>",32,,word,COLD,,,,,,,,,,,,
html-keyboard-response,13,46746,null,"",null,,word,COLD,,,,,,,,,,,,
html-keyboard-response,14,46954,null,"<div style=""font-size:42px;"">HEAVY</div><img id = ""stim"" ><div class = red_square id = ""topsquare"" ></div>",null,practice,word_square,HEAVY,prac_response,1,Top,32,true,,,,,,,
html-keyboard-response,15,47256,209.39999997615814,"<div style=""font-size:42px;"">HEAVY</div>",32,,word,HEAVY,,,,,,,,,,,,
html-keyboard-response,16,48759,null,"",null,,word,HEAVY,,,,,,,,,,,,
html-keyboard-response,17,48961,null,"<div style=""font-size:42px;"">FUNNY</div><img id = ""stim"" ><div class = green_square id = ""topsquare"" ></div>",null,practice,word_square,FUNNY,prac_response,0,Top,none,true,,,,,,,
html-keyboard-response,18,49263,null,"<div style=""font-size:42px;"">FUNNY</div>",null,,word,FUNNY,,,,,,,,,,,,
html-keyboard-response,19,50765,null,"",null,,word,FUNNY,,,,,,,,,,,,
html-keyboard-response,20,50967,null,"<div style=""font-size:42px;"">SCARY</div><img id = ""stim"" ><div class = red_square id = ""bottomsquare"" ></div>",null,practice,word_square,SCARY,prac_response,1,Bottom,32,true,,,,,,,
html-keyboard-response,21,51270,101.80000007152557,"<div style=""font-size:42px;"">SCARY</div>",32,,word,SCARY,,,,,,,,,,,,
html-keyboard-response,22,52773,null,"",null,,word,SCARY,,,,,,,,,,,,
html-keyboard-response,23,52976,null,"<div style=""font-size:42px;"">PEACEFUL</div><img id = ""stim"" ><div class = red_square id = ""topsquare"" ></div>",null,practice,word_square,PEACEFUL,prac_response,1,Top,32,true,,,,,,,
html-keyboard-response,24,53278,173.60000002384186,"<div style=""font-size:42px;"">PEACEFUL</div>",32,,word,PEACEFUL,,,,,,,,,,,,
html-keyboard-response,25,54781,null,"",null,,word,PEACEFUL,,,,,,,,,,,,
html-keyboard-response,26,54983,null,"<div style=""font-size:42px;"">LITTLE</div><img id = ""stim"" ><div class = green_square id = ""bottomsquare"" ></div>",null,practice,word_square,LITTLE,prac_response,0,Bottom,none,true,,,,,,,
html-keyboard-response,27,55285,null,"<div style=""font-size:42px;"">LITTLE</div>",null,,word,LITTLE,,,,,,,,,,,,
html-keyboard-response,28,56787,null,"",null,,word,LITTLE,,,,,,,,,,,,
html-keyboard-response,29,56990,null,"<div style=""font-size:42px;"">TIRED</div><img id = ""stim"" ><div class = green_square id = ""topsquare"" ></div>",null,practice,word_square,TIRED,prac_response,0,Top,none,true,,,,,,,
html-keyboard-response,30,57292,null,"<div style=""font-size:42px;"">TIRED</div>",null,,word,TIRED,,,,,,,,,,,,
html-keyboard-response,31,58796,null,"",null,,word,TIRED,,,,,,,,,,,,
html-keyboard-response,32,58999,null,"<div style=""font-size:42px;"">ENTERTAINING</div><img id = ""stim"" ><div class = green_square id = ""bottomsquare"" ></div>",null,practice,word_square,ENTERTAINING,prac_response,0,Bottom,none,true,,,,,,,
html-keyboard-response,33,59301,null,"<div style=""font-size:42px;"">ENTERTAINING</div>",null,,word,ENTERTAINING,,,,,,,,,,,,
html-keyboard-response,34,60805,null,"",null,,word,ENTERTAINING,,,,,,,,,,,,
html-keyboard-response,35,61008,null,"<div style=""font-size:42px;"">GRATEFUL</div><img id = ""stim"" ><div class = red_square id = ""bottomsquare"" ></div>",null,practice,word_square,GRATEFUL,prac_response,1,Bottom,32,true,,,,,,,
html-keyboard-response,36,61310,125.90000009536743,"<div style=""font-size:42px;"">GRATEFUL</div>",32,,word,GRATEFUL,,,,,,,,,,,,
html-keyboard-response,37,62813,null,"",null,,word,GRATEFUL,,,,,,,,,,,,
html-keyboard-response,38,63017,null,"<div style=""font-size:42px;"">LOUD</div><img id = ""stim"" ><div class = green_square id = ""topsquare"" ></div>",null,practice,word_square,LOUD,prac_response,0,Top,none,true,,,,,,,
html-keyboard-response,39,63320,null,"<div style=""font-size:42px;"">LOUD</div>",null,,word,LOUD,,,,,,,,,,,,
html-keyboard-response,40,64821,null,"",null,,word,LOUD,,,,,,,,,,,,
html-keyboard-response,41,65023,null,"<div style=""font-size:42px;"">SMART</div><img id = ""stim"" ><div class = red_square id = ""topsquare"" ></div>",null,practice,word_square,SMART,prac_response,1,Top,32,true,,,,,,,
html-keyboard-response,42,65326,138.70000004768372,"<div style=""font-size:42px;"">SMART</div>",32,,word,SMART,,,,,,,,,,,,
html-keyboard-response,43,66830,null,"",null,,word,SMART,,,,,,,,,,,,
html-keyboard-response,44,67033,null,"<div style=""font-size:42px;"">SMOOTH</div><img id = ""stim"" ><div class = red_square id = ""bottomsquare"" ></div>",null,practice,word_square,SMOOTH,prac_response,1,Bottom,32,true,,,,,,,
html-keyboard-response,45,67336,234.29999995231628,"<div style=""font-size:42px;"">SMOOTH</div>",32,,word,SMOOTH,,,,,,,,,,,,
html-keyboard-response,46,68847,null,"",null,,word,SMOOTH,,,,,,,,,,,,
html-keyboard-response,47,69050,null,"<div style=""font-size:42px;"">DISHONEST</div><img id = ""stim"" ><div class = green_square id = ""bottomsquare"" ></div>",null,practice,word_square,DISHONEST,prac_response,0,Bottom,none,true,,,,,,,
html-keyboard-response,48,69352,null,"<div style=""font-size:42px;"">DISHONEST</div>",null,,word,DISHONEST,,,,,,,,,,,,
html-keyboard-response,49,70853,null,"",null,,word,DISHONEST,,,,,,,,,,,,
html-keyboard-response,50,71056,null,"<div style=""font-size:42px;"">WEALTHY</div><img id = ""stim"" ><div class = red_square id = ""topsquare"" ></div>",null,practice,word_square,WEALTHY,prac_response,1,Top,32,true,,,,,,,
html-keyboard-response,51,71359,145,"<div style=""font-size:42px;"">WEALTHY</div>",32,,word,WEALTHY,,,,,,,,,,,,
html-keyboard-response,52,72862,null,"",null,,word,WEALTHY,,,,,,,,,,,,
html-keyboard-response,53,73064,null,"<div style=""font-size:42px;"">BEAUTIFUL</div><img id = ""stim"" ><div class = green_square id = ""topsquare"" ></div>",null,practice,word_square,BEAUTIFUL,prac_response,0,Top,none,true,,,,,,,
html-keyboard-response,54,73366,null,"<div style=""font-size:42px;"">BEAUTIFUL</div>",null,,word,BEAUTIFUL,,,,,,,,,,,,
html-keyboard-response,55,74869,null,"",null,,word,BEAUTIFUL,,,,,,,,,,,,
html-keyboard-response,56,81932,7058.900000095367,"<p> Good job! You responded correctly to 100% of the trials. </p>
                  <p>Be sure to only press the spacebar if you see a red square, and please keep your accuracy above 80%.</p>
                  <p>We're going to try once more to make sure you understand the task. press any key to continue. </p>",32,,,,,,,,,,,,,,,
html-keyboard-response,57,86578,4643.799999952316,"<p>You will see a list of words and colored squares in the following task.<p><p>Press the spacebar whenever you see a red square.<p><p>Do not press a key if the square is green<p><p>Press the spacebar to continue.</p>",32,,,,,,,,,,,,,,,
html-keyboard-response,58,89081,null,"<div style=""font-size:60px;"">+</div>",null,,,,,,,,,,,,,,,
html-keyboard-response,59,89283,null,"<div style=""font-size:42px;"">HAPPY</div><img id = ""stim"" ><div class = green_square id = ""bottomsquare"" ></div>",null,practice2,word_square,HAPPY,prac_response,0,Bottom,none,true,,,,,,,
html-keyboard-response,60,89585,null,"<div style=""font-size:42px;"">HAPPY</div>",null,,word,HAPPY,,,,,,,,,,,,
html-keyboard-response,61,91088,null,"",null,,word,HAPPY,,,,,,,,,,,,
html-keyboard-response,62,91290,null,"<div style=""font-size:42px;"">COLD</div><img id = ""stim"" ><div class = red_square id = ""bottomsquare"" ></div>",null,practice2,word_square,,prac_response,1,Bottom,32,true,,,,,,,
html-keyboard-response,63,91593,127.19999992847443,"<div style=""font-size:42px;"">COLD</div>",32,,word,COLD,,,,,,,,,,,,
html-keyboard-response,64,93096,null,"",null,,word,COLD,,,,,,,,,,,,
html-keyboard-response,65,93299,null,"<div style=""font-size:42px;"">HEAVY</div><img id = ""stim"" ><div class = red_square id = ""topsquare"" ></div>",null,practice2,word_square,,prac_response,1,Top,32,true,,,,,,,
html-keyboard-response,66,93600,159.39999997615814,"<div style=""font-size:42px;"">HEAVY</div>",32,,word,HEAVY,,,,,,,,,,,,
html-keyboard-response,67,95103,null,"",null,,word,HEAVY,,,,,,,,,,,,
html-keyboard-response,68,95305,null,"<div style=""font-size:42px;"">FUNNY</div><img id = ""stim"" ><div class = green_square id = ""topsquare"" ></div>",null,practice2,word_square,,prac_response,0,Top,none,true,,,,,,,
html-keyboard-response,69,95607,null,"<div style=""font-size:42px;"">FUNNY</div>",null,,word,FUNNY,,,,,,,,,,,,
html-keyboard-response,70,97109,null,"",null,,word,FUNNY,,,,,,,,,,,,
html-keyboard-response,71,97312,null,"<div style=""font-size:42px;"">SCARY</div><img id = ""stim"" ><div class = red_square id = ""bottomsquare"" ></div>",null,practice2,word_square,,prac_response,1,Bottom,32,true,,,,,,,
html-keyboard-response,72,97615,102.70000004768372,"<div style=""font-size:42px;"">SCARY</div>",32,,word,SCARY,,,,,,,,,,,,
html-keyboard-response,73,99118,null,"",null,,word,SCARY,,,,,,,,,,,,
html-keyboard-response,74,99334,null,"<div style=""font-size:42px;"">PEACEFUL</div><img id = ""stim"" ><div class = red_square id = ""topsquare"" ></div>",null,practice2,word_square,,prac_response,1,Top,32,true,,,,,,,
html-keyboard-response,75,99636,205.10000002384186,"<div style=""font-size:42px;"">PEACEFUL</div>",32,,word,PEACEFUL,,,,,,,,,,,,
html-keyboard-response,76,101139,null,"",null,,word,PEACEFUL,,,,,,,,,,,,
html-keyboard-response,77,101343,null,"<div style=""font-size:42px;"">LITTLE</div><img id = ""stim"" ><div class = green_square id = ""bottomsquare"" ></div>",null,practice2,word_square,LITTLE,prac_response,0,Bottom,none,true,,,,,,,
html-keyboard-response,78,101645,null,"<div style=""font-size:42px;"">LITTLE</div>",null,,word,LITTLE,,,,,,,,,,,,
html-keyboard-response,79,103148,null,"",null,,word,LITTLE,,,,,,,,,,,,
html-keyboard-response,80,103351,null,"<div style=""font-size:42px;"">TIRED</div><img id = ""stim"" ><div class = green_square id = ""topsquare"" ></div>",null,practice2,word_square,,prac_response,0,Top,none,true,,,,,,,
html-keyboard-response,81,103654,null,"<div style=""font-size:42px;"">TIRED</div>",null,,word,TIRED,,,,,,,,,,,,
html-keyboard-response,82,105157,null,"",null,,word,TIRED,,,,,,,,,,,,
html-keyboard-response,83,105363,null,"<div style=""font-size:42px;"">ENTERTAINING</div><img id = ""stim"" ><div class = green_square id = ""bottomsquare"" ></div>",null,practice2,word_square,ENTERTAINING,prac_response,0,Bottom,none,true,,,,,,,
html-keyboard-response,84,105666,null,"<div style=""font-size:42px;"">ENTERTAINING</div>",null,,word,ENTERTAINING,,,,,,,,,,,,
html-keyboard-response,85,107169,null,"",null,,word,ENTERTAINING,,,,,,,,,,,,
html-keyboard-response,86,107371,null,"<div style=""font-size:42px;"">GRATEFUL</div><img id = ""stim"" ><div class = red_square id = ""bottomsquare"" ></div>",null,practice2,word_square,,prac_response,1,Bottom,32,true,,,,,,,
html-keyboard-response,87,107672,134.70000004768372,"<div style=""font-size:42px;"">GRATEFUL</div>",32,,word,GRATEFUL,,,,,,,,,,,,
html-keyboard-response,88,109174,null,"",null,,word,GRATEFUL,,,,,,,,,,,,
html-keyboard-response,89,109377,null,"<div style=""font-size:42px;"">LOUD</div><img id = ""stim"" ><div class = green_square id = ""topsquare"" ></div>",null,practice2,word_square,,prac_response,0,Top,none,true,,,,,,,
html-keyboard-response,90,109680,null,"<div style=""font-size:42px;"">LOUD</div>",null,,word,LOUD,,,,,,,,,,,,
html-keyboard-response,91,111183,null,"",null,,word,LOUD,,,,,,,,,,,,
html-keyboard-response,92,111386,null,"<div style=""font-size:42px;"">SMART</div><img id = ""stim"" ><div class = red_square id = ""topsquare"" ></div>",null,practice2,word_square,,prac_response,1,Top,32,true,,,,,,,
html-keyboard-response,93,111688,147.60000002384186,"<div style=""font-size:42px;"">SMART</div>",32,,word,SMART,,,,,,,,,,,,
html-keyboard-response,94,113190,null,"",null,,word,SMART,,,,,,,,,,,,
html-keyboard-response,95,113393,null,"<div style=""font-size:42px;"">SMOOTH</div><img id = ""stim"" ><div class = red_square id = ""bottomsquare"" ></div>",null,practice2,word_square,,prac_response,1,Bottom,32,true,,,,,,,
html-keyboard-response,96,113696,null,"<div style=""font-size:42px;"">SMOOTH</div>",null,,word,SMOOTH,,,,,,,,,,,,
html-keyboard-response,97,115206,28.700000047683716,"",32,,word,SMOOTH,,,,,,,,,,,,
html-keyboard-response,98,115409,null,"<div style=""font-size:42px;"">DISHONEST</div><img id = ""stim"" ><div class = green_square id = ""bottomsquare"" ></div>",null,practice2,word_square,DISHONEST,prac_response,0,Bottom,none,true,,,,,,,
html-keyboard-response,99,115712,null,"<div style=""font-size:42px;"">DISHONEST</div>",null,,word,DISHONEST,,,,,,,,,,,,
html-keyboard-response,100,117217,null,"",null,,word,DISHONEST,,,,,,,,,,,,
html-keyboard-response,101,117419,null,"<div style=""font-size:42px;"">WEALTHY</div><img id = ""stim"" ><div class = red_square id = ""topsquare"" ></div>",null,practice2,word_square,,prac_response,1,Top,32,true,,,,,,,
html-keyboard-response,102,117722,156.60000002384186,"<div style=""font-size:42px;"">WEALTHY</div>",32,,word,WEALTHY,,,,,,,,,,,,
html-keyboard-response,103,119225,null,"",null,,word,WEALTHY,,,,,,,,,,,,
html-keyboard-response,104,119427,null,"<div style=""font-size:42px;"">BEAUTIFUL</div><img id = ""stim"" ><div class = green_square id = ""topsquare"" ></div>",null,practice2,word_square,,prac_response,0,Top,none,true,,,,,,,
html-keyboard-response,105,119739,null,"<div style=""font-size:42px;"">BEAUTIFUL</div>",null,,word,BEAUTIFUL,,,,,,,,,,,,
html-keyboard-response,106,121242,null,"",null,,word,BEAUTIFUL,,,,,,,,,,,,
html-keyboard-response,107,125222,3979,"<p> Good job! You responded correctly to 100% of the trials. </p>
                    <p>Be sure to only press the spacebar if you see a red square, and please keep your accuracy above 80%.</p>
                    <p>Press any key to begin the math and recall sections. Thank you! </p>",32,,,,,,,,,,,,,,,
call-function,108,125223,,"",,,,,,,,,,,,,,,,
html-keyboard-response,109,125323,null,"",null,,,,,,,,,,,,,,,
math-period,110,128875,5548.500000119209,"",,,,,,,,,,,2,,,,,
html-keyboard-response,111,128976,null,"",null,,,,,,,,,,,,,,,
math-period,112,132310,6462.799999952316,"",,,,,,,,,,,0,,,,,
html-keyboard-response,113,132411,null,"",null,,,,,,,,,,,,,,,
math-period,114,134310,3517,"",,,,,,,,,,,1,,,,,
html-keyboard-response,115,134412,null,"",null,,,,,,,,,,,,,,,
math-period,116,136071,2925.899999976158,"",,,,,,,,,,,5,,,,,
html-keyboard-response,117,136172,null,"",null,,,,,,,,,,,,,,,
math-period,118,138960,5355.100000023842,"",,,,,,,,,,,3,,,,,
html-keyboard-response,119,139061,null,"",null,,,,,,,,,,,,,,,
math-period,120,140460,2534.3000000715256,"",,,,,,,,,,,5,,,,,
html-keyboard-response,121,140563,null,"",null,,,,,,,,,,,,,,,
math-period,122,141881,2247.7999999523163,"",,,,,,,,,,,3,,,,,
html-keyboard-response,123,141983,null,"",null,,,,,,,,,,,,,,,
math-period,124,143501,2577.7999999523163,"",,,,,,,,,,,5,,,,,
html-keyboard-response,125,143602,null,"",null,,,,,,,,,,,,,,,
math-period,126,145858,4307.600000023842,"",,,,,,,,,,,1,,,,,
html-keyboard-response,127,145959,null,"",null,,,,,,,,,,,,,,,
math-period,128,147279,2393.2000000476837,"",,,,,,,,,,,5,,,,,
html-keyboard-response,129,147381,null,"",null,,,,,,,,,,,,,,,
math-period,130,149224,null,"",,,,,,,,,,,,,,,,
html-keyboard-response,131,150227,null,"Recall Period!",null,,,,,,,,,,,,,,,
call-function,132,150229,,"",,,,,,,,,,,,,,,,
html-keyboard-response,133,150330,null,"",null,,,,,,,,,,,,,,,
recall-period,134,154832,19442.50000023842,"",,,,,,,,,,,cold,,,,,
html-keyboard-response,135,154934,null,"",null,,,,,,,,,,,,,,,
recall-period,136,162118,40421.00000023842,"",,,,,,,,,,,scared,,,,,
html-keyboard-response,137,162220,null,"",null,,,,,,,,,,,,,,,
recall-period,138,166795,26425.699999570847,"",,,,,,,,,,,smooth,,,,,
html-keyboard-response,139,166897,null,"",null,,,,,,,,,,,,,,,
recall-period,140,225230,300233.4999997616,"",,,,,,,,,,,,,,,,
html-keyboard-response,141,225732,null,"Time's Up!",null,,,,,,,,,,,,,,,
html-keyboard-response,142,228725,2992,"<p>We will now begin the experiment!<p><p>Please try to remember all words from each list.<p><p>Press the spacebar whenever you see a red square.<p><p><p><p>Press the spacebar to begin.</p>",32,,,,,,,,,,,,,,,
html-keyboard-response,143,231434,2206.5,"<div style=""font-size:48px;"">Press any key to begin list 1 of 16 </div>",49,,,,,,,,,,,,,,,
html-keyboard-response,144,233937,null,"<div style=""font-size:60px;"">+</div>",null,,,,,,,,,,,,,,,
html-keyboard-response,145,234145,null,"<div style=""font-size:42px;"">HEADBAND</div><img id = ""stim"" ><div class = red_square id = topsquare></div>",null,encoding,word_square,,,1,topsquare,32,true,,,HEADBAND,0,,,
html-keyboard-response,146,234448,228,"<div style=""font-size:42px;"">HEADBAND</div>",32,,word,HEADBAND,,,,,,,,,,,,
html-keyboard-response,147,235951,null,"",null,,word,HEADBAND,,,,,,,,,,,,
html-keyboard-response,148,236155,null,"<div style=""font-size:42px;"">ZIPPER</div><img id = ""stim"" ><div class = green_square id = bottomsquare></div>",null,encoding,word_square,,,0,bottomsquare,none,true,,,ZIPPER,0,,,
html-keyboard-response,149,236457,null,"<div style=""font-size:42px;"">ZIPPER</div>",null,,word,ZIPPER,,,,,,,,,,,,
html-keyboard-response,150,237960,null,"",null,,word,ZIPPER,,,,,,,,,,,,
html-keyboard-response,151,238163,null,"<div style=""font-size:42px;"">AIRPLANE</div><img id = ""stim"" ><div class = red_square id = bottomsquare></div>",null,encoding,word_square,,,1,bottomsquare,32,true,,,AIRPLANE,0,,,
html-keyboard-response,152,238466,180.70000004768372,"<div style=""font-size:42px;"">AIRPLANE</div>",32,,word,AIRPLANE,,,,,,,,,,,,
html-keyboard-response,153,239970,null,"",null,,word,AIRPLANE,,,,,,,,,,,,
html-keyboard-response,154,240174,null,"<div style=""font-size:42px;"">BROOK</div><img id = ""stim"" ><div class = red_square id = topsquare></div>",null,encoding,word_square,,,1,topsquare,32,true,,,BROOK,0,,,
html-keyboard-response,155,240477,null,"<div style=""font-size:42px;"">BROOK</div>",null,,word,BROOK,,,,,,,,,,,,
html-keyboard-response,156,241979,16.899999976158142,"",32,,word,BROOK,,,,,,,,,,,,
html-keyboard-response,157,242183,null,"<div style=""font-size:42px;"">BODY</div><img id = ""stim"" ><div class = red_square id = bottomsquare></div>",null,encoding,word_square,,,1,bottomsquare,32,true,,,BODY,0,,,
html-keyboard-response,158,242486,232.79999995231628,"<div style=""font-size:42px;"">BODY</div>",32,,word,BODY,,,,,,,,,,,,
html-keyboard-response,159,243988,null,"",null,,word,BODY,,,,,,,,,,,,
html-keyboard-response,160,244192,null,"<div style=""font-size:42px;"">PAIL</div><img id = ""stim"" ><div class = green_square id = topsquare></div>",null,encoding,word_square,,,0,topsquare,none,true,,,PAIL,0,,,
html-keyboard-response,161,244494,null,"<div style=""font-size:42px;"">PAIL</div>",null,,word,PAIL,,,,,,,,,,,,
html-keyboard-response,162,245998,null,"",null,,word,PAIL,,,,,,,,,,,,
html-keyboard-response,163,246205,null,"<div style=""font-size:42px;"">SERPENT</div><img id = ""stim"" ><div class = green_square id = bottomsquare></div>",null,encoding,word_square,,,0,bottomsquare,none,true,,,SERPENT,0,,,
html-keyboard-response,164,246507,null,"<div style=""font-size:42px;"">SERPENT</div>",null,,word,SERPENT,,,,,,,,,,,,
html-keyboard-response,165,248008,null,"",null,,word,SERPENT,,,,,,,,,,,,
html-keyboard-response,166,248212,null,"<div style=""font-size:42px;"">PEBBLE</div><img id = ""stim"" ><div class = red_square id = topsquare></div>",null,encoding,word_square,,,1,topsquare,32,true,,,PEBBLE,0,,,
html-keyboard-response,167,248515,188.39999997615814,"<div style=""font-size:42px;"">PEBBLE</div>",32,,word,PEBBLE,,,,,,,,,,,,
html-keyboard-response,168,250019,null,"",null,,word,PEBBLE,,,,,,,,,,,,
html-keyboard-response,169,250223,null,"<div style=""font-size:42px;"">PICNIC</div><img id = ""stim"" ><div class = green_square id = topsquare></div>",null,encoding,word_square,,,0,topsquare,none,true,,,PICNIC,0,,,
html-keyboard-response,170,250526,null,"<div style=""font-size:42px;"">PICNIC</div>",null,,word,PICNIC,,,,,,,,,,,,
html-keyboard-response,171,252033,null,"",null,,word,PICNIC,,,,,,,,,,,,
html-keyboard-response,172,252237,null,"<div style=""font-size:42px;"">WAITRESS</div><img id = ""stim"" ><div class = green_square id = bottomsquare></div>",null,encoding,word_square,,,0,bottomsquare,none,true,,,WAITRESS,0,,,
html-keyboard-response,173,252540,null,"<div style=""font-size:42px;"">WAITRESS</div>",null,,word,WAITRESS,,,,,,,,,,,,
html-keyboard-response,174,254047,null,"",null,,word,WAITRESS,,,,,,,,,,,,
html-keyboard-response,175,254250,null,"<div style=""font-size:42px;"">LAKE</div><img id = ""stim"" ><div class = red_square id = bottomsquare></div>",null,encoding,word_square,,,1,bottomsquare,32,true,,,LAKE,0,,,
html-keyboard-response,176,254553,175.80000007152557,"<div style=""font-size:42px;"">LAKE</div>",32,,word,LAKE,,,,,,,,,,,,
html-keyboard-response,177,256056,null,"",null,,word,LAKE,,,,,,,,,,,,
html-keyboard-response,178,256270,null,"<div style=""font-size:42px;"">KIDNEY</div><img id = ""stim"" ><div class = green_square id = topsquare></div>",null,encoding,word_square,,,0,topsquare,none,true,,,KIDNEY,0,,,
html-keyboard-response,179,256572,null,"<div style=""font-size:42px;"">KIDNEY</div>",null,,word,KIDNEY,,,,,,,,,,,,
html-keyboard-response,180,258076,null,"",null,,word,KIDNEY,,,,,,,,,,,,
html-keyboard-response,181,258280,null,"<div style=""font-size:42px;"">TUNNEL</div><img id = ""stim"" ><div class = green_square id = bottomsquare></div>",null,encoding,word_square,,,0,bottomsquare,none,true,,,TUNNEL,0,,,
html-keyboard-response,182,258583,null,"<div style=""font-size:42px;"">TUNNEL</div>",null,,word,TUNNEL,,,,,,,,,,,,
html-keyboard-response,183,260086,null,"",null,,word,TUNNEL,,,,,,,,,,,,
html-keyboard-response,184,260294,null,"<div style=""font-size:42px;"">LEAF</div><img id = ""stim"" ><div class = red_square id = topsquare></div>",null,encoding,word_square,,,1,topsquare,32,true,,,LEAF,0,,,
html-keyboard-response,185,260597,175.69999992847443,"<div style=""font-size:42px;"">LEAF</div>",32,,word,LEAF,,,,,,,,,,,,
html-keyboard-response,186,262101,null,"",null,,word,LEAF,,,,,,,,,,,,
html-keyboard-response,187,262304,null,"<div style=""font-size:42px;"">INSECT</div><img id = ""stim"" ><div class = green_square id = topsquare></div>",null,encoding,word_square,,,0,topsquare,none,true,,,INSECT,0,,,
html-keyboard-response,188,262607,null,"<div style=""font-size:42px;"">INSECT</div>",null,,word,INSECT,,,,,,,,,,,,
html-keyboard-response,189,264110,null,"",null,,word,INSECT,,,,,,,,,,,,
html-keyboard-response,190,264317,null,"<div style=""font-size:42px;"">YACHT</div><img id = ""stim"" ><div class = red_square id = bottomsquare></div>",null,encoding,word_square,,,1,bottomsquare,32,true,,,YACHT,0,,,
html-keyboard-response,191,264621,171.79999995231628,"<div style=""font-size:42px;"">YACHT</div>",32,,word,YACHT,,,,,,,,,,,,
html-keyboard-response,192,266125,null,"",null,,word,YACHT,,,,,,,,,,,,
call-function,193,266125,,"",,,,,,,,,,,,,,,,
html-keyboard-response,194,266227,null,"",null,,,,,,,,,,,,,,,
math-period,195,267793,2769.4999998807907,"",,,,,,,,,,,4,,,,,
html-keyboard-response,196,267894,null,"",null,,,,,,,,,,,,,,,
math-period,197,269776,3560.3000000715256,"",,,,,,,,,,,1,,,,,
html-keyboard-response,198,269878,null,"",null,,,,,,,,,,,,,,,
math-period,199,271015,1990.2000000476837,"",,,,,,,,,,,2,,,,,
html-keyboard-response,200,271117,null,"",null,,,,,,,,,,,,,,,
math-period,201,272157,1862.8999998569489,"",,,,,,,,,,,5,,,,,
html-keyboard-response,202,272260,null,"",null,,,,,,,,,,,,,,,
math-period,203,273428,2085.5,"",,,,,,,,,,,3,,,,,
html-keyboard-response,204,273530,null,"",null,,,,,,,,,,,,,,,
math-period,205,275069,2789.5,"",,,,,,,,,,,4,,,,,
html-keyboard-response,206,275171,null,"",null,,,,,,,,,,,,,,,
math-period,207,278563,6565.100000023842,"",,,,,,,,,,,3,,,,,
html-keyboard-response,208,278665,null,"",null,,,,,,,,,,,,,,,
math-period,209,280321,3140.3000000715256,"",,,,,,,,,,,4,,,,,
html-keyboard-response,210,280422,null,"",null,,,,,,,,,,,,,,,
math-period,211,281597,2114,"",,,,,,,,,,,5,,,,,
html-keyboard-response,212,281699,null,"",null,,,,,,,,,,,,,,,
math-period,213,283737,3855.7999999523163,"",,,,,,,,,,,3,,,,,
html-keyboard-response,214,283838,null,"",null,,,,,,,,,,,,,,,
math-period,215,285675,3475.5999999046326,"",,,,,,,,,,,4,,,,,
html-keyboard-response,216,285777,null,"",null,,,,,,,,,,,,,,,
math-period,217,288316,4917.500000119209,"",,,,,,,,,,,2,,,,,
html-keyboard-response,218,288418,null,"",null,,,,,,,,,,,,,,,
math-period,219,290128,null,"",,,,,,,,,,,,,,,,
html-keyboard-response,220,291132,null,"Recall Period!",null,,,,,,,,,,,,,,,
call-function,221,291132,,"",,,,,,,,,,,,,,,,
html-keyboard-response,222,291234,null,"",null,,,,,,,,,,,,,,,
recall-period,223,294707,20359.199999809265,"",,,,,,,,,,,headband,,,,,
html-keyboard-response,224,294809,null,"",null,,,,,,,,,,,,,,,
recall-period,225,298014,15680.700000047684,"",,,,,,,,,,,airplane,,,,,
html-keyboard-response,226,298116,null,"",null,,,,,,,,,,,,,,,
recall-period,227,299941,5427.500000119209,"",,,,,,,,,,,body,,,,,
html-keyboard-response,228,300043,null,"",null,,,,,,,,,,,,,,,
recall-period,229,301809,5607.799999833107,"",,,,,,,,,,,lake,,,,,
html-keyboard-response,230,301925,null,"",null,,,,,,,,,,,,,,,
recall-period,231,366135,null,"",,,,,,,,,,,,,,,,
html-keyboard-response,232,366639,null,"Time's Up!",null,,,,,,,,,,,,,,,
html-keyboard-response,233,370313,3671.600000023842,"<p> Good job! You have responded correctly to 100% of the trials. </p>
                      <p>Be sure to only press the spacebar if you see a red square, and please keep your accuracy above 80%.</p>
                      <p> Press any key to continue the experiment. </p>",32,,,,,,,,,,,,,,,
html-keyboard-response,234,372382,2066.7000000476837,"<div style=""font-size:48px;"">Press any key to begin list 2 of 16 </div>",50,,,,,,,,,,,,,,,
html-keyboard-response,235,374885,null,"<div style=""font-size:60px;"">+</div>",null,,,,,,,,,,,,,,,
html-keyboard-response,236,375088,null,"<div style=""font-size:42px;"">DESK</div><img id = ""stim"" ><div class = red_square id = bottomsquare></div>",null,encoding,word_square,,,1,bottomsquare,32,true,,,DESK,1,,,
html-keyboard-response,237,375390,271.5,"<div style=""font-size:42px;"">DESK</div>",32,,word,DESK,,,,,,,,,,,,
html-keyboard-response,238,376898,null,"",null,,word,DESK,,,,,,,,,,,,
html-keyboard-response,239,377102,null,"<div style=""font-size:42px;"">BADGE</div><img id = ""stim"" ><div class = green_square id = topsquare></div>",null,encoding,word_square,,,0,topsquare,none,true,,,BADGE,1,,,
html-keyboard-response,240,377405,null,"<div style=""font-size:42px;"">BADGE</div>",null,,word,BADGE,,,,,,,,,,,,
html-keyboard-response,241,378911,null,"",null,,word,BADGE,,,,,,,,,,,,
html-keyboard-response,242,379113,null,"<div style=""font-size:42px;"">RELISH</div><img id = ""stim"" ><div class = red_square id = topsquare></div>",null,encoding,word_square,,,1,topsquare,32,true,,,RELISH,1,,,
html-keyboard-response,243,379416,188.89999997615814,"<div style=""font-size:42px;"">RELISH</div>",32,,word,RELISH,,,,,,,,,,,,
html-keyboard-response,244,380919,null,"",null,,word,RELISH,,,,,,,,,,,,
html-keyboard-response,245,381122,null,"<div style=""font-size:42px;"">MUSTARD</div><img id = ""stim"" ><div class = green_square id = bottomsquare></div>",null,encoding,word_square,,,0,bottomsquare,none,true,,,MUSTARD,1,,,
html-keyboard-response,246,381425,null,"<div style=""font-size:42px;"">MUSTARD</div>",null,,word,MUSTARD,,,,,,,,,,,,
html-keyboard-response,247,382927,null,"",null,,word,MUSTARD,,,,,,,,,,,,
html-keyboard-response,248,383144,null,"<div style=""font-size:42px;"">SUSPECT</div><img id = ""stim"" ><div class = green_square id = topsquare></div>",null,encoding,word_square,,,0,topsquare,none,true,,,SUSPECT,1,,,
html-keyboard-response,249,383446,null,"<div style=""font-size:42px;"">SUSPECT</div>",null,,word,SUSPECT,,,,,,,,,,,,
html-keyboard-response,250,384949,null,"",null,,word,SUSPECT,,,,,,,,,,,,
html-keyboard-response,251,385159,null,"<div style=""font-size:42px;"">WOMAN</div><img id = ""stim"" ><div class = red_square id = bottomsquare></div>",null,encoding,word_square,,,1,bottomsquare,32,true,,,WOMAN,1,,,
html-keyboard-response,252,385461,123.20000004768372,"<div style=""font-size:42px;"">WOMAN</div>",32,,word,WOMAN,,,,,,,,,,,,
html-keyboard-response,253,386964,null,"",null,,word,WOMAN,,,,,,,,,,,,
html-keyboard-response,254,387166,null,"<div style=""font-size:42px;"">SWAMP</div><img id = ""stim"" ><div class = green_square id = bottomsquare></div>",null,encoding,word_square,,,0,bottomsquare,none,true,,,SWAMP,1,,,
html-keyboard-response,255,387469,null,"<div style=""font-size:42px;"">SWAMP</div>",null,,word,SWAMP,,,,,,,,,,,,
html-keyboard-response,256,388971,null,"",null,,word,SWAMP,,,,,,,,,,,,
html-keyboard-response,257,389174,null,"<div style=""font-size:42px;"">BUCKLE</div><img id = ""stim"" ><div class = green_square id = topsquare></div>",null,encoding,word_square,,,0,topsquare,none,true,,,BUCKLE,1,,,
html-keyboard-response,258,389477,null,"<div style=""font-size:42px;"">BUCKLE</div>",null,,word,BUCKLE,,,,,,,,,,,,
html-keyboard-response,259,390980,null,"",null,,word,BUCKLE,,,,,,,,,,,,
html-keyboard-response,260,391182,null,"<div style=""font-size:42px;"">GRILL</div><img id = ""stim"" ><div class = red_square id = topsquare></div>",null,encoding,word_square,,,1,topsquare,32,true,,,GRILL,1,,,
html-keyboard-response,261,391485,181.79999995231628,"<div style=""font-size:42px;"">GRILL</div>",32,,word,GRILL,,,,,,,,,,,,
html-keyboard-response,262,392988,null,"",null,,word,GRILL,,,,,,,,,,,,
html-keyboard-response,263,393190,null,"<div style=""font-size:42px;"">VAGRANT</div><img id = ""stim"" ><div class = green_square id = bottomsquare></div>",null,encoding,word_square,,,0,bottomsquare,none,true,,,VAGRANT,1,,,
html-keyboard-response,264,393493,null,"<div style=""font-size:42px;"">VAGRANT</div>",null,,word,VAGRANT,,,,,,,,,,,,
html-keyboard-response,265,394995,null,"",null,,word,VAGRANT,,,,,,,,,,,,
html-keyboard-response,266,395198,null,"<div style=""font-size:42px;"">TURTLE</div><img id = ""stim"" ><div class = green_square id = topsquare></div>",null,encoding,word_square,,,0,topsquare,none,true,,,TURTLE,1,,,
html-keyboard-response,267,395504,null,"<div style=""font-size:42px;"">TURTLE</div>",null,,word,TURTLE,,,,,,,,,,,,
html-keyboard-response,268,397007,null,"",null,,word,TURTLE,,,,,,,,,,,,
html-keyboard-response,269,397209,null,"<div style=""font-size:42px;"">RABBIT</div><img id = ""stim"" ><div class = red_square id = bottomsquare></div>",null,encoding,word_square,,,1,bottomsquare,32,true,,,RABBIT,1,,,
html-keyboard-response,270,397516,198.29999995231628,"<div style=""font-size:42px;"">RABBIT</div>",32,,word,RABBIT,,,,,,,,,,,,
html-keyboard-response,271,399019,null,"",null,,word,RABBIT,,,,,,,,,,,,
html-keyboard-response,272,399221,null,"<div style=""font-size:42px;"">STALLION</div><img id = ""stim"" ><div class = red_square id = topsquare></div>",null,encoding,word_square,,,1,topsquare,32,true,,,STALLION,1,,,
html-keyboard-response,273,399524,null,"<div style=""font-size:42px;"">STALLION</div>",null,,word,STALLION,,,,,,,,,,,,
html-keyboard-response,274,401027,137.29999995231628,"",32,,word,STALLION,,,,,,,,,,,,
html-keyboard-response,275,401228,null,"<div style=""font-size:42px;"">JEEP</div><img id = ""stim"" ><div class = red_square id = bottomsquare></div>",null,encoding,word_square,,,1,bottomsquare,32,true,,,JEEP,1,,,
html-keyboard-response,276,401528,222.89999997615814,"<div style=""font-size:42px;"">JEEP</div>",32,,word,JEEP,,,,,,,,,,,,
html-keyboard-response,277,403030,null,"",null,,word,JEEP,,,,,,,,,,,,
html-keyboard-response,278,403232,null,"<div style=""font-size:42px;"">PENCIL</div><img id = ""stim"" ><div class = green_square id = bottomsquare></div>",null,encoding,word_square,,,0,bottomsquare,none,true,,,PENCIL,1,,,
html-keyboard-response,279,403534,null,"<div style=""font-size:42px;"">PENCIL</div>",null,,word,PENCIL,,,,,,,,,,,,
html-keyboard-response,280,405037,null,"",null,,word,PENCIL,,,,,,,,,,,,
html-keyboard-response,281,405239,null,"<div style=""font-size:42px;"">SUPPER</div><img id = ""stim"" ><div class = red_square id = topsquare></div>",null,encoding,word_square,,,1,topsquare,32,true,,,SUPPER,1,,,
html-keyboard-response,282,405541,209.10000002384186,"<div style=""font-size:42px;"">SUPPER</div>",32,,word,SUPPER,,,,,,,,,,,,
html-keyboard-response,283,407044,null,"",null,,word,SUPPER,,,,,,,,,,,,
call-function,284,407044,,"",,,,,,,,,,,,,,,,
html-keyboard-response,285,407146,null,"",null,,,,,,,,,,,,,,,
math-period,286,408896,3035.9000000953674,"",,,,,,,,,,,3,,,,,
html-keyboard-response,287,408998,null,"",null,,,,,,,,,,,,,,,
math-period,288,410771,3348.600000143051,"",,,,,,,,,,,6,,,,,
html-keyboard-response,289,410872,null,"",null,,,,,,,,,,,,,,,
math-period,290,411876,1772,"",,,,,,,,,,,2,,,,,
html-keyboard-response,291,411978,null,"",null,,,,,,,,,,,,,,,
math-period,292,414206,4299.699999928474,"",,,,,,,,,,,0,,,,,
html-keyboard-response,293,414308,null,"",null,,,,,,,,,,,,,,,
math-period,294,416125,3309.2000000476837,"",,,,,,,,,,,3,,,,,
html-keyboard-response,295,416227,null,"",null,,,,,,,,,,,,,,,
math-period,296,417887,3114,"",,,,,,,,,,,1,,,,,
html-keyboard-response,297,417989,null,"",null,,,,,,,,,,,,,,,
math-period,298,419509,2680.7000000476837,"",,,,,,,,,,,6,,,,,
html-keyboard-response,299,419615,null,"",null,,,,,,,,,,,,,,,
math-period,300,421024,2552.5999999046326,"",,,,,,,,,,,4,,,,,
html-keyboard-response,301,421125,null,"",null,,,,,,,,,,,,,,,
math-period,302,423933,5471.899999976158,"",,,,,,,,,,,3,,,,,
html-keyboard-response,303,424035,null,"",null,,,,,,,,,,,,,,,
math-period,304,425197,2067,"",,,,,,,,,,,3,,,,,
html-keyboard-response,305,425299,null,"",null,,,,,,,,,,,,,,,
math-period,306,427328,3867.100000023842,"",,,,,,,,,,,4,,,,,
html-keyboard-response,307,427430,null,"",null,,,,,,,,,,,,,,,
math-period,308,429364,3601.9000000953674,"",,,,,,,,,,,4,,,,,
html-keyboard-response,309,429466,null,"",null,,,,,,,,,,,,,,,
math-period,310,431046,null,"",,,,,,,,,,,,,,,,
html-keyboard-response,311,432048,null,"Recall Period!",null,,,,,,,,,,,,,,,
call-function,312,432050,,"",,,,,,,,,,,,,,,,
html-keyboard-response,313,432152,null,"",null,,,,,,,,,,,,,,,
recall-period,314,434331,6668.500000119209,"",,,,,,,,,,,desk,,,,,
html-keyboard-response,315,434435,null,"",null,,,,,,,,,,,,,,,
recall-period,316,437715,13643.700000166893,"",,,,,,,,,,,relish,,,,,
html-keyboard-response,317,437817,null,"",null,,,,,,,,,,,,,,,
recall-period,318,440417,10005.599999904633,"",,,,,,,,,,,woman,,,,,
html-keyboard-response,319,440520,null,"",null,,,,,,,,,,,,,,,
recall-period,320,443010,7524.799999952316,"",,,,,,,,,,,grill,,,,,
html-keyboard-response,321,443111,null,"",null,,,,,,,,,,,,,,,
recall-period,322,507051,null,"",,,,,,,,,,,,,,,,
html-keyboard-response,323,507556,null,"Time's Up!",null,,,,,,,,,,,,,,,
html-keyboard-response,324,509753,2193.7000000476837,"<p> Good job! You have responded correctly to 100% of the trials. </p>
                      <p>Be sure to only press the spacebar if you see a red square, and please keep your accuracy above 80%.</p>
                      <p> Press any key to continue the experiment. </p>",32,,,,,,,,,,,,,,,
html-keyboard-response,325,510669,914.7000000476837,"<div style=""font-size:48px;"">Press any key to begin list 3 of 16 </div>",51,,,,,,,,,,,,,,,
html-keyboard-response,326,513172,null,"<div style=""font-size:60px;"">+</div>",null,,,,,,,,,,,,,,,
html-keyboard-response,327,513375,null,"<div style=""font-size:42px;"">DRILL</div><img id = ""stim"" ><div class = green_square id = bottomsquare></div>",null,encoding,word_square,,,0,bottomsquare,none,true,,,DRILL,2,,,
html-keyboard-response,328,513678,null,"<div style=""font-size:42px;"">DRILL</div>",null,,word,DRILL,,,,,,,,,,,,
html-keyboard-response,329,515181,null,"",null,,word,DRILL,,,,,,,,,,,,
html-keyboard-response,330,515383,null,"<div style=""font-size:42px;"">ADULT</div><img id = ""stim"" ><div class = red_square id = topsquare></div>",null,encoding,word_square,,,1,topsquare,32,true,,,ADULT,2,,,
html-keyboard-response,331,515685,194.60000002384186,"<div style=""font-size:42px;"">ADULT</div>",32,,word,ADULT,,,,,,,,,,,,
html-keyboard-response,332,517186,null,"",null,,word,ADULT,,,,,,,,,,,,
html-keyboard-response,333,517390,null,"<div style=""font-size:42px;"">SLOPE</div><img id = ""stim"" ><div class = green_square id = topsquare></div>",null,encoding,word_square,,,0,topsquare,none,true,,,SLOPE,2,,,
html-keyboard-response,334,517694,null,"<div style=""font-size:42px;"">SLOPE</div>",null,,word,SLOPE,,,,,,,,,,,,
html-keyboard-response,335,519198,null,"",null,,word,SLOPE,,,,,,,,,,,,
html-keyboard-response,336,519402,null,"<div style=""font-size:42px;"">CRACKER</div><img id = ""stim"" ><div class = green_square id = bottomsquare></div>",null,encoding,word_square,,,0,bottomsquare,none,true,,,CRACKER,2,,,
html-keyboard-response,337,519704,null,"<div style=""font-size:42px;"">CRACKER</div>",null,,word,CRACKER,,,,,,,,,,,,
html-keyboard-response,338,521207,null,"",null,,word,CRACKER,,,,,,,,,,,,
html-keyboard-response,339,521414,null,"<div style=""font-size:42px;"">STRING</div><img id = ""stim"" ><div class = green_square id = topsquare></div>",null,encoding,word_square,,,0,topsquare,none,true,,,STRING,2,,,
html-keyboard-response,340,521717,null,"<div style=""font-size:42px;"">STRING</div>",null,,word,STRING,,,,,,,,,,,,
html-keyboard-response,341,523224,null,"",null,,word,STRING,,,,,,,,,,,,
html-keyboard-response,342,523428,null,"<div style=""font-size:42px;"">BUILDING</div><img id = ""stim"" ><div class = red_square id = bottomsquare></div>",null,encoding,word_square,,,1,bottomsquare,32,true,,,BUILDING,2,,,
html-keyboard-response,343,523731,207.10000002384186,"<div style=""font-size:42px;"">BUILDING</div>",32,,word,BUILDING,,,,,,,,,,,,
html-keyboard-response,344,525233,null,"",null,,word,BUILDING,,,,,,,,,,,,
html-keyboard-response,345,525437,null,"<div style=""font-size:42px;"">OYSTER</div><img id = ""stim"" ><div class = red_square id = topsquare></div>",null,encoding,word_square,,,1,topsquare,32,true,,,OYSTER,2,,,
html-keyboard-response,346,525755,null,"<div style=""font-size:42px;"">OYSTER</div>",null,,word,OYSTER,,,,,,,,,,,,
html-keyboard-response,347,527258,59.199999928474426,"",32,,word,OYSTER,,,,,,,,,,,,
html-keyboard-response,348,527462,null,"<div style=""font-size:42px;"">TEMPLE</div><img id = ""stim"" ><div class = green_square id = bottomsquare></div>",null,encoding,word_square,,,0,bottomsquare,none,true,,,TEMPLE,2,,,
html-keyboard-response,349,527765,null,"<div style=""font-size:42px;"">TEMPLE</div>",null,,word,TEMPLE,,,,,,,,,,,,
html-keyboard-response,350,529267,null,"",null,,word,TEMPLE,,,,,,,,,,,,
html-keyboard-response,351,529471,null,"<div style=""font-size:42px;"">ICEBERG</div><img id = ""stim"" ><div class = red_square id = bottomsquare></div>",null,encoding,word_square,,,1,bottomsquare,32,true,,,ICEBERG,2,,,
html-keyboard-response,352,529774,159.79999995231628,"<div style=""font-size:42px;"">ICEBERG</div>",32,,word,ICEBERG,,,,,,,,,,,,
html-keyboard-response,353,531277,null,"",null,,word,ICEBERG,,,,,,,,,,,,
html-keyboard-response,354,531488,null,"<div style=""font-size:42px;"">SPOUSE</div><img id = ""stim"" ><div class = red_square id = topsquare></div>",null,encoding,word_square,,,1,topsquare,32,true,,,SPOUSE,2,,,
html-keyboard-response,355,531791,null,"<div style=""font-size:42px;"">SPOUSE</div>",null,,word,SPOUSE,,,,,,,,,,,,
html-keyboard-response,356,533293,219.5,"",32,,word,SPOUSE,,,,,,,,,,,,
html-keyboard-response,357,533495,null,"<div style=""font-size:42px;"">HUSBAND</div><img id = ""stim"" ><div class = green_square id = topsquare></div>",null,encoding,word_square,,,0,topsquare,none,true,,,HUSBAND,2,,,
html-keyboard-response,358,533797,null,"<div style=""font-size:42px;"">HUSBAND</div>",null,,word,HUSBAND,,,,,,,,,,,,
html-keyboard-response,359,535301,null,"",null,,word,HUSBAND,,,,,,,,,,,,
html-keyboard-response,360,535505,null,"<div style=""font-size:42px;"">GERM</div><img id = ""stim"" ><div class = red_square id = bottomsquare></div>",null,encoding,word_square,,,1,bottomsquare,32,true,,,GERM,2,,,
html-keyboard-response,361,535809,159.89999997615814,"<div style=""font-size:42px;"">GERM</div>",32,,word,GERM,,,,,,,,,,,,
html-keyboard-response,362,537316,null,"",null,,word,GERM,,,,,,,,,,,,
html-keyboard-response,363,537523,null,"<div style=""font-size:42px;"">BEAKER</div><img id = ""stim"" ><div class = red_square id = topsquare></div>",null,encoding,word_square,,,1,topsquare,32,true,,,BEAKER,2,,,
html-keyboard-response,364,537827,null,"<div style=""font-size:42px;"">BEAKER</div>",null,,word,BEAKER,,,,,,,,,,,,
html-keyboard-response,365,539330,202.59999990463257,"",32,,word,BEAKER,,,,,,,,,,,,
html-keyboard-response,366,539534,null,"<div style=""font-size:42px;"">LADDER</div><img id = ""stim"" ><div class = green_square id = bottomsquare></div>",null,encoding,word_square,,,0,bottomsquare,none,true,,,LADDER,2,,,
html-keyboard-response,367,539838,null,"<div style=""font-size:42px;"">LADDER</div>",null,,word,LADDER,,,,,,,,,,,,
html-keyboard-response,368,541340,null,"",null,,word,LADDER,,,,,,,,,,,,
html-keyboard-response,369,541543,null,"<div style=""font-size:42px;"">DUNGEON</div><img id = ""stim"" ><div class = red_square id = bottomsquare></div>",null,encoding,word_square,,,1,bottomsquare,32,true,,,DUNGEON,2,,,
html-keyboard-response,370,541846,242.60000002384186,"<div style=""font-size:42px;"">DUNGEON</div>",32,,word,DUNGEON,,,,,,,,,,,,
html-keyboard-response,371,543349,null,"",null,,word,DUNGEON,,,,,,,,,,,,
html-keyboard-response,372,543557,null,"<div style=""font-size:42px;"">SCARF</div><img id = ""stim"" ><div class = green_square id = topsquare></div>",null,encoding,word_square,,,0,topsquare,none,true,,,SCARF,2,,,
html-keyboard-response,373,543863,null,"<div style=""font-size:42px;"">SCARF</div>",null,,word,SCARF,,,,,,,,,,,,
html-keyboard-response,374,545366,null,"",null,,word,SCARF,,,,,,,,,,,,
call-function,375,545368,,"",,,,,,,,,,,,,,,,
html-keyboard-response,376,545470,null,"",null,,,,,,,,,,,,,,,
math-period,377,546718,2242.5,"",,,,,,,,,,,5,,,,,
html-keyboard-response,378,546827,null,"",null,,,,,,,,,,,,,,,
math-period,379,550552,7299.200000047684,"",,,,,,,,,,,1,,,,,
html-keyboard-response,380,550655,null,"",null,,,,,,,,,,,,,,,
math-period,381,551994,2195.899999976158,"",,,,,,,,,,,3,,,,,
html-keyboard-response,382,552096,null,"",null,,,,,,,,,,,,,,,
math-period,383,554287,4103.399999976158,"",,,,,,,,,,,0,,,,,
html-keyboard-response,384,554388,null,"",null,,,,,,,,,,,,,,,
math-period,385,556328,3675.5,"",,,,,,,,,,,2,,,,,
html-keyboard-response,386,556430,null,"",null,,,,,,,,,,,,,,,
math-period,387,557799,2473.7999999523163,"",,,,,,,,,,,4,,,,,
html-keyboard-response,388,557900,null,"",null,,,,,,,,,,,,,,,
math-period,389,559399,2591.100000023842,"",,,,,,,,,,,5,,,,,
html-keyboard-response,390,559501,null,"",null,,,,,,,,,,,,,,,
math-period,391,561569,3940.5999999046326,"",,,,,,,,,,,4,,,,,
html-keyboard-response,392,561670,null,"",null,,,,,,,,,,,,,,,
math-period,393,562791,1950.3000000715256,"",,,,,,,,,,,2,,,,,
html-keyboard-response,394,562894,null,"",null,,,,,,,,,,,,,,,
math-period,395,566067,6144.899999976158,"",,,,,,,,,,,1,,,,,
html-keyboard-response,396,566170,null,"",null,,,,,,,,,,,,,,,
math-period,397,567365,2104.399999856949,"",,,,,,,,,,,5,,,,,
html-keyboard-response,398,567468,null,"",null,,,,,,,,,,,,,,,
math-period,399,568677,2170.2999999523163,"",,,,,,,,,,,5,,,,,
html-keyboard-response,400,568780,null,"",null,,,,,,,,,,,,,,,
math-period,401,569370,null,"",,,,,,,,,,,,,,,,
html-keyboard-response,402,570372,null,"Recall Period!",null,,,,,,,,,,,,,,,
call-function,403,570373,,"",,,,,,,,,,,,,,,,
html-keyboard-response,404,570474,null,"",null,,,,,,,,,,,,,,,
recall-period,405,574774,19824.50000011921,"",,,,,,,,,,,adult,,,,,
html-keyboard-response,406,574876,null,"",null,,,,,,,,,,,,,,,
recall-period,407,576747,10545.299999833107,"",,,,,,,,,,,building,,,,,
html-keyboard-response,408,576849,null,"",null,,,,,,,,,,,,,,,
recall-period,409,580779,34237.70000016689,"",,,,,,,,,,,oyster,,,,,
html-keyboard-response,410,580881,null,"",null,,,,,,,,,,,,,,,
recall-period,411,583738,9350.099999427795,"",,,,,,,,,,,spouse,,,,,
html-keyboard-response,412,583840,null,"",null,,,,,,,,,,,,,,,
recall-period,413,645375,null,"",,,,,,,,,,,,,,,,
html-keyboard-response,414,645878,null,"Time's Up!",null,,,,,,,,,,,,,,,
html-keyboard-response,415,648042,2162.3000000715256,"<p> Good job! You have responded correctly to 100% of the trials. </p>
                      <p>Be sure to only press the spacebar if you see a red square, and please keep your accuracy above 80%.</p>
                      <p> Press any key to continue the experiment. </p>",32,,,,,,,,,,,,,,,
html-keyboard-response,416,649361,1318.2000000476837,"<div style=""font-size:48px;"">Press any key to begin list 4 of 16 </div>",52,,,,,,,,,,,,,,,
html-keyboard-response,417,651868,null,"<div style=""font-size:60px;"">+</div>",null,,,,,,,,,,,,,,,
html-keyboard-response,418,652071,null,"<div style=""font-size:42px;"">SUITE</div><img id = ""stim"" ><div class = green_square id = topsquare></div>",null,encoding,word_square,,,0,topsquare,none,true,,,SUITE,3,,,
html-keyboard-response,419,652374,null,"<div style=""font-size:42px;"">SUITE</div>",null,,word,SUITE,,,,,,,,,,,,
html-keyboard-response,420,653881,null,"",null,,word,SUITE,,,,,,,,,,,,
html-keyboard-response,421,654087,null,"<div style=""font-size:42px;"">TULIP</div><img id = ""stim"" ><div class = red_square id = bottomsquare></div>",null,encoding,word_square,,,1,bottomsquare,32,true,,,TULIP,3,,,
html-keyboard-response,422,654389,206.5,"<div style=""font-size:42px;"">TULIP</div>",32,,word,TULIP,,,,,,,,,,,,
html-keyboard-response,423,655892,null,"",null,,word,TULIP,,,,,,,,,,,,
html-keyboard-response,424,656094,null,"<div style=""font-size:42px;"">MISTER</div><img id = ""stim"" ><div class = green_square id = bottomsquare></div>",null,encoding,word_square,,,0,bottomsquare,none,true,,,MISTER,3,,,
html-keyboard-response,425,656397,null,"<div style=""font-size:42px;"">MISTER</div>",null,,word,MISTER,,,,,,,,,,,,
html-keyboard-response,426,657900,null,"",null,,word,MISTER,,,,,,,,,,,,
html-keyboard-response,427,658104,null,"<div style=""font-size:42px;"">NOMAD</div><img id = ""stim"" ><div class = red_square id = topsquare></div>",null,encoding,word_square,,,1,topsquare,32,true,,,NOMAD,3,,,
html-keyboard-response,428,658407,244.79999995231628,"<div style=""font-size:42px;"">NOMAD</div>",32,,word,NOMAD,,,,,,,,,,,,
html-keyboard-response,429,659910,null,"",null,,word,NOMAD,,,,,,,,,,,,
html-keyboard-response,430,660113,null,"<div style=""font-size:42px;"">TART</div><img id = ""stim"" ><div class = red_square id = bottomsquare></div>",null,encoding,word_square,,,1,bottomsquare,32,true,,,TART,3,,,
html-keyboard-response,431,660415,297.5,"<div style=""font-size:42px;"">TART</div>",32,,word,TART,,,,,,,,,,,,
html-keyboard-response,432,661917,null,"",null,,word,TART,,,,,,,,,,,,
html-keyboard-response,433,662130,null,"<div style=""font-size:42px;"">DAGGER</div><img id = ""stim"" ><div class = green_square id = topsquare></div>",null,encoding,word_square,,,0,topsquare,none,true,,,DAGGER,3,,,
html-keyboard-response,434,662433,null,"<div style=""font-size:42px;"">DAGGER</div>",null,,word,DAGGER,,,,,,,,,,,,
html-keyboard-response,435,663939,null,"",null,,word,DAGGER,,,,,,,,,,,,
html-keyboard-response,436,664141,null,"<div style=""font-size:42px;"">GODDESS</div><img id = ""stim"" ><div class = red_square id = topsquare></div>",null,encoding,word_square,,,1,topsquare,32,true,,,GODDESS,3,,,
html-keyboard-response,437,664443,213,"<div style=""font-size:42px;"">GODDESS</div>",32,,word,GODDESS,,,,,,,,,,,,
html-keyboard-response,438,665946,null,"",null,,word,GODDESS,,,,,,,,,,,,
html-keyboard-response,439,666148,null,"<div style=""font-size:42px;"">MILDEW</div><img id = ""stim"" ><div class = red_square id = bottomsquare></div>",null,encoding,word_square,,,1,bottomsquare,32,true,,,MILDEW,3,,,
html-keyboard-response,440,666451,null,"<div style=""font-size:42px;"">MILDEW</div>",null,,word,MILDEW,,,,,,,,,,,,
html-keyboard-response,441,667953,246.79999995231628,"",32,,word,MILDEW,,,,,,,,,,,,
html-keyboard-response,442,668156,null,"<div style=""font-size:42px;"">CABOOSE</div><img id = ""stim"" ><div class = green_square id = bottomsquare></div>",null,encoding,word_square,,,0,bottomsquare,none,false,,,CABOOSE,3,,,
html-keyboard-response,443,668457,null,"<div style=""font-size:42px;"">CABOOSE</div>",null,,word,CABOOSE,,,,,,,,,,,,
html-keyboard-response,444,669960,122.5,"",32,,word,CABOOSE,,,,,,,,,,,,
html-keyboard-response,445,670162,null,"<div style=""font-size:42px;"">SIDEWALK</div><img id = ""stim"" ><div class = red_square id = topsquare></div>",null,encoding,word_square,,,1,topsquare,32,true,,,SIDEWALK,3,,,
html-keyboard-response,446,670465,206.70000004768372,"<div style=""font-size:42px;"">SIDEWALK</div>",32,,word,SIDEWALK,,,,,,,,,,,,
html-keyboard-response,447,671967,null,"",null,,word,SIDEWALK,,,,,,,,,,,,
html-keyboard-response,448,672170,null,"<div style=""font-size:42px;"">ROCKET</div><img id = ""stim"" ><div class = red_square id = bottomsquare></div>",null,encoding,word_square,,,1,bottomsquare,32,true,,,ROCKET,3,,,
html-keyboard-response,449,672472,229.20000004768372,"<div style=""font-size:42px;"">ROCKET</div>",32,,word,ROCKET,,,,,,,,,,,,
html-keyboard-response,450,673975,null,"",null,,word,ROCKET,,,,,,,,,,,,
html-keyboard-response,451,674178,null,"<div style=""font-size:42px;"">CONTRACT</div><img id = ""stim"" ><div class = green_square id = topsquare></div>",null,encoding,word_square,,,0,topsquare,none,true,,,CONTRACT,3,,,
html-keyboard-response,452,674481,null,"<div style=""font-size:42px;"">CONTRACT</div>",null,,word,CONTRACT,,,,,,,,,,,,
html-keyboard-response,453,675984,null,"",null,,word,CONTRACT,,,,,,,,,,,,
html-keyboard-response,454,676186,null,"<div style=""font-size:42px;"">NAPKIN</div><img id = ""stim"" ><div class = green_square id = bottomsquare></div>",null,encoding,word_square,,,0,bottomsquare,none,true,,,NAPKIN,3,,,
html-keyboard-response,455,676489,null,"<div style=""font-size:42px;"">NAPKIN</div>",null,,word,NAPKIN,,,,,,,,,,,,
html-keyboard-response,456,678003,null,"",null,,word,NAPKIN,,,,,,,,,,,,
html-keyboard-response,457,678205,null,"<div style=""font-size:42px;"">FOSSIL</div><img id = ""stim"" ><div class = green_square id = topsquare></div>",null,encoding,word_square,,,0,topsquare,none,true,,,FOSSIL,3,,,
html-keyboard-response,458,678509,null,"<div style=""font-size:42px;"">FOSSIL</div>",null,,word,FOSSIL,,,,,,,,,,,,
html-keyboard-response,459,680012,null,"",null,,word,FOSSIL,,,,,,,,,,,,
html-keyboard-response,460,680214,null,"<div style=""font-size:42px;"">PILOT</div><img id = ""stim"" ><div class = red_square id = topsquare></div>",null,encoding,word_square,,,1,topsquare,32,true,,,PILOT,3,,,
html-keyboard-response,461,680518,195,"<div style=""font-size:42px;"">PILOT</div>",32,,word,PILOT,,,,,,,,,,,,
html-keyboard-response,462,682024,null,"",null,,word,PILOT,,,,,,,,,,,,
html-keyboard-response,463,682226,null,"<div style=""font-size:42px;"">PREACHER</div><img id = ""stim"" ><div class = green_square id = bottomsquare></div>",null,encoding,word_square,,,0,bottomsquare,none,true,,,PREACHER,3,,,
html-keyboard-response,464,682527,null,"<div style=""font-size:42px;"">PREACHER</div>",null,,word,PREACHER,,,,,,,,,,,,
html-keyboard-response,465,684029,null,"",null,,word,PREACHER,,,,,,,,,,,,
call-function,466,684031,,"",,,,,,,,,,,,,,,,
html-keyboard-response,467,684136,null,"",null,,,,,,,,,,,,,,,
math-period,468,688000,7562.100000023842,"",,,,,,,,,,,1,,,,,
html-keyboard-response,469,688103,null,"",null,,,,,,,,,,,,,,,
math-period,470,689191,1987.8999999761581,"",,,,,,,,,,,4,,,,,
html-keyboard-response,471,689294,null,"",null,,,,,,,,,,,,,,,
math-period,472,691429,3953.399999976158,"",,,,,,,,,,,4,,,,,
html-keyboard-response,473,691531,null,"",null,,,,,,,,,,,,,,,
math-period,474,693309,3215.5000001192093,"",,,,,,,,,,,4,,,,,
html-keyboard-response,475,693411,null,"",null,,,,,,,,,,,,,,,
math-period,476,694850,2272.2999999523163,"",,,,,,,,,,,4,,,,,
html-keyboard-response,477,694952,null,"",null,,,,,,,,,,,,,,,
math-period,478,695956,1782,"",,,,,,,,,,,3,,,,,
html-keyboard-response,479,696058,null,"",null,,,,,,,,,,,,,,,
math-period,480,698102,3871.7999999523163,"",,,,,,,,,,,3,,,,,
html-keyboard-response,481,698205,null,"",null,,,,,,,,,,,,,,,
math-period,482,701996,10534.00000011921,"",,,,,,,,,,,2,,,,,
html-keyboard-response,483,702097,null,"",null,,,,,,,,,,,,,,,
math-period,484,703344,2288.3000000715256,"",,,,,,,,,,,2,,,,,
html-keyboard-response,485,703446,null,"",null,,,,,,,,,,,,,,,
math-period,486,704653,2022.5999999046326,"",,,,,,,,,,,2,,,,,
html-keyboard-response,487,704754,null,"",null,,,,,,,,,,,,,,,
math-period,488,705985,2066.4999998807907,"",,,,,,,,,,,3,,,,,
html-keyboard-response,489,706087,null,"",null,,,,,,,,,,,,,,,
math-period,490,707069,1746.2000000476837,"",,,,,,,,,,,2,,,,,
html-keyboard-response,491,707172,null,"",null,,,,,,,,,,,,,,,
math-period,492,708032,null,"",,,,,,,,,,,,,,,,
html-keyboard-response,493,709036,null,"Recall Period!",null,,,,,,,,,,,,,,,
call-function,494,709037,,"",,,,,,,,,,,,,,,,
html-keyboard-response,495,709140,null,"",null,,,,,,,,,,,,,,,
recall-period,496,711433,10017.099999666214,"",,,,,,,,,,,tulip,,,,,
html-keyboard-response,497,711536,null,"",null,,,,,,,,,,,,,,,
recall-period,498,713350,7717.099999666214,"",,,,,,,,,,,nomad,,,,,
html-keyboard-response,499,713452,null,"",null,,,,,,,,,,,,,,,
recall-period,500,714673,3307.5000001192093,"",,,,,,,,,,,tart,,,,,
html-keyboard-response,501,714776,null,"",null,,,,,,,,,,,,,,,
recall-period,502,716758,8083.200000047684,"",,,,,,,,,,,goddess,,,,,
html-keyboard-response,503,716859,null,"",null,,,,,,,,,,,,,,,
recall-period,504,784038,null,"",,,,,,,,,,,,,,,,
html-keyboard-response,505,784540,null,"Time's Up!",null,,,,,,,,,,,,,,,
html-keyboard-response,506,786425,1884.6000000238419,"<p> Good job! You have responded correctly to 98% of the trials. </p>
                      <p>Be sure to only press the spacebar if you see a red square, and please keep your accuracy above 80%.</p>
                      <p> Press any key to continue the experiment. </p>",32,,,,,,,,,,,,,,,
html-keyboard-response,507,787754,1328,"<div style=""font-size:48px;"">Press any key to begin list 5 of 16 </div>",53,,,,,,,,,,,,,,,
html-keyboard-response,508,790270,null,"<div style=""font-size:60px;"">+</div>",null,,,,,,,,,,,,,,,
html-keyboard-response,509,790474,null,"<div style=""font-size:42px;"">BLOSSOM</div><img id = ""stim"" ><div class = red_square id = topsquare></div>",null,encoding,word_square,,,1,topsquare,32,true,,,BLOSSOM,4,,,
html-keyboard-response,510,790777,174.19999992847443,"<div style=""font-size:42px;"">BLOSSOM</div>",32,,word,BLOSSOM,,,,,,,,,,,,
html-keyboard-response,511,792280,null,"",null,,word,BLOSSOM,,,,,,,,,,,,
html-keyboard-response,512,792484,null,"<div style=""font-size:42px;"">HOOD</div><img id = ""stim"" ><div class = red_square id = bottomsquare></div>",null,encoding,word_square,,,1,bottomsquare,32,true,,,HOOD,4,,,
html-keyboard-response,513,792787,268,"<div style=""font-size:42px;"">HOOD</div>",32,,word,HOOD,,,,,,,,,,,,
html-keyboard-response,514,794290,null,"",null,,word,HOOD,,,,,,,,,,,,
html-keyboard-response,515,794495,null,"<div style=""font-size:42px;"">PATROL</div><img id = ""stim"" ><div class = red_square id = topsquare></div>",null,encoding,word_square,,,1,topsquare,32,true,,,PATROL,4,,,
html-keyboard-response,516,794798,null,"<div style=""font-size:42px;"">PATROL</div>",null,,word,PATROL,,,,,,,,,,,,
html-keyboard-response,517,796302,32.10000002384186,"",32,,word,PATROL,,,,,,,,,,,,
html-keyboard-response,518,796506,null,"<div style=""font-size:42px;"">FOX</div><img id = ""stim"" ><div class = green_square id = bottomsquare></div>",null,encoding,word_square,,,0,bottomsquare,none,true,,,FOX,4,,,
html-keyboard-response,519,796810,null,"<div style=""font-size:42px;"">FOX</div>",null,,word,FOX,,,,,,,,,,,,
html-keyboard-response,520,798312,null,"",null,,word,FOX,,,,,,,,,,,,
html-keyboard-response,521,798514,null,"<div style=""font-size:42px;"">DOORBELL</div><img id = ""stim"" ><div class = red_square id = bottomsquare></div>",null,encoding,word_square,,,1,bottomsquare,32,true,,,DOORBELL,4,,,
html-keyboard-response,522,798817,177.79999995231628,"<div style=""font-size:42px;"">DOORBELL</div>",32,,word,DOORBELL,,,,,,,,,,,,
html-keyboard-response,523,800320,null,"",null,,word,DOORBELL,,,,,,,,,,,,
html-keyboard-response,524,800522,null,"<div style=""font-size:42px;"">QUILT</div><img id = ""stim"" ><div class = green_square id = topsquare></div>",null,encoding,word_square,,,0,topsquare,none,true,,,QUILT,4,,,
html-keyboard-response,525,800824,null,"<div style=""font-size:42px;"">QUILT</div>",null,,word,QUILT,,,,,,,,,,,,
html-keyboard-response,526,802326,null,"",null,,word,QUILT,,,,,,,,,,,,
html-keyboard-response,527,802528,null,"<div style=""font-size:42px;"">FIREPLACE</div><img id = ""stim"" ><div class = green_square id = bottomsquare></div>",null,encoding,word_square,,,0,bottomsquare,none,true,,,FIREPLACE,4,,,
html-keyboard-response,528,802832,null,"<div style=""font-size:42px;"">FIREPLACE</div>",null,,word,FIREPLACE,,,,,,,,,,,,
html-keyboard-response,529,804335,null,"",null,,word,FIREPLACE,,,,,,,,,,,,
html-keyboard-response,530,804537,null,"<div style=""font-size:42px;"">SLUG</div><img id = ""stim"" ><div class = red_square id = topsquare></div>",null,encoding,word_square,,,1,topsquare,32,true,,,SLUG,4,,,
html-keyboard-response,531,804841,174.79999995231628,"<div style=""font-size:42px;"">SLUG</div>",32,,word,SLUG,,,,,,,,,,,,
html-keyboard-response,532,806345,null,"",null,,word,SLUG,,,,,,,,,,,,
html-keyboard-response,533,806548,null,"<div style=""font-size:42px;"">DRIVER</div><img id = ""stim"" ><div class = red_square id = bottomsquare></div>",null,encoding,word_square,,,1,bottomsquare,32,true,,,DRIVER,4,,,
html-keyboard-response,534,806850,238.20000004768372,"<div style=""font-size:42px;"">DRIVER</div>",32,,word,DRIVER,,,,,,,,,,,,
html-keyboard-response,535,808353,null,"",null,,word,DRIVER,,,,,,,,,,,,
html-keyboard-response,536,808555,null,"<div style=""font-size:42px;"">PALACE</div><img id = ""stim"" ><div class = green_square id = topsquare></div>",null,encoding,word_square,,,0,topsquare,none,true,,,PALACE,4,,,
html-keyboard-response,537,808859,null,"<div style=""font-size:42px;"">PALACE</div>",null,,word,PALACE,,,,,,,,,,,,
html-keyboard-response,538,810365,null,"",null,,word,PALACE,,,,,,,,,,,,
html-keyboard-response,539,810567,null,"<div style=""font-size:42px;"">RIFLE</div><img id = ""stim"" ><div class = green_square id = bottomsquare></div>",null,encoding,word_square,,,0,bottomsquare,none,true,,,RIFLE,4,,,
html-keyboard-response,540,810870,null,"<div style=""font-size:42px;"">RIFLE</div>",null,,word,RIFLE,,,,,,,,,,,,
html-keyboard-response,541,812374,null,"",null,,word,RIFLE,,,,,,,,,,,,
html-keyboard-response,542,812578,null,"<div style=""font-size:42px;"">BLUEJAY</div><img id = ""stim"" ><div class = red_square id = topsquare></div>",null,encoding,word_square,,,1,topsquare,32,true,,,BLUEJAY,4,,,
html-keyboard-response,543,812881,200.79999995231628,"<div style=""font-size:42px;"">BLUEJAY</div>",32,,word,BLUEJAY,,,,,,,,,,,,
html-keyboard-response,544,814384,null,"",null,,word,BLUEJAY,,,,,,,,,,,,
html-keyboard-response,545,814588,null,"<div style=""font-size:42px;"">LEG</div><img id = ""stim"" ><div class = green_square id = topsquare></div>",null,encoding,word_square,,,0,topsquare,none,true,,,LEG,4,,,
html-keyboard-response,546,814892,null,"<div style=""font-size:42px;"">LEG</div>",null,,word,LEG,,,,,,,,,,,,
html-keyboard-response,547,816396,null,"",null,,word,LEG,,,,,,,,,,,,
html-keyboard-response,548,816601,null,"<div style=""font-size:42px;"">BISON</div><img id = ""stim"" ><div class = green_square id = bottomsquare></div>",null,encoding,word_square,,,0,bottomsquare,none,true,,,BISON,4,,,
html-keyboard-response,549,816904,null,"<div style=""font-size:42px;"">BISON</div>",null,,word,BISON,,,,,,,,,,,,
html-keyboard-response,550,818407,null,"",null,,word,BISON,,,,,,,,,,,,
html-keyboard-response,551,818612,null,"<div style=""font-size:42px;"">FARMER</div><img id = ""stim"" ><div class = red_square id = bottomsquare></div>",null,encoding,word_square,,,1,bottomsquare,32,true,,,FARMER,4,,,
html-keyboard-response,552,818928,176,"<div style=""font-size:42px;"">FARMER</div>",32,,word,FARMER,,,,,,,,,,,,
html-keyboard-response,553,820431,null,"",null,,word,FARMER,,,,,,,,,,,,
html-keyboard-response,554,820633,null,"<div style=""font-size:42px;"">BLUEPRINT</div><img id = ""stim"" ><div class = green_square id = topsquare></div>",null,encoding,word_square,,,0,topsquare,none,true,,,BLUEPRINT,4,,,
html-keyboard-response,555,820934,null,"<div style=""font-size:42px;"">BLUEPRINT</div>",null,,word,BLUEPRINT,,,,,,,,,,,,
html-keyboard-response,556,822437,null,"",null,,word,BLUEPRINT,,,,,,,,,,,,
call-function,557,822439,,"",,,,,,,,,,,,,,,,
html-keyboard-response,558,822542,null,"",null,,,,,,,,,,,,,,,
math-period,559,824180,2687.8000000715256,"",,,,,,,,,,,5,,,,,
html-keyboard-response,560,824281,null,"",null,,,,,,,,,,,,,,,
math-period,561,825229,1653.7999999523163,"",,,,,,,,,,,3,,,,,
html-keyboard-response,562,825331,null,"",null,,,,,,,,,,,,,,,
math-period,563,827630,4420.799999952316,"",,,,,,,,,,,5,,,,,
html-keyboard-response,564,827733,null,"",null,,,,,,,,,,,,,,,
math-period,565,829452,3183.5999999046326,"",,,,,,,,,,,1,,,,,
html-keyboard-response,566,829554,null,"",null,,,,,,,,,,,,,,,
math-period,567,831363,3042.4999998807907,"",,,,,,,,,,,6,,,,,
html-keyboard-response,568,831464,null,"",null,,,,,,,,,,,,,,,
math-period,569,832851,2331.6999999284744,"",,,,,,,,,,,5,,,,,
html-keyboard-response,570,832952,null,"",null,,,,,,,,,,,,,,,
math-period,571,834208,2324,"",,,,,,,,,,,4,,,,,
html-keyboard-response,572,834310,null,"",null,,,,,,,,,,,,,,,
math-period,573,835644,2347.3000000715256,"",,,,,,,,,,,3,,,,,
html-keyboard-response,574,835745,null,"",null,,,,,,,,,,,,,,,
math-period,575,837349,2882.4999998807907,"",,,,,,,,,,,5,,,,,
html-keyboard-response,576,837451,null,"",null,,,,,,,,,,,,,,,
math-period,577,838871,2492,"",,,,,,,,,,,5,,,,,
html-keyboard-response,578,838974,null,"",null,,,,,,,,,,,,,,,
math-period,579,841397,4359.200000047684,"",,,,,,,,,,,3,,,,,
html-keyboard-response,580,841499,null,"",null,,,,,,,,,,,,,,,
math-period,581,843542,3883.4000000953674,"",,,,,,,,,,,1,,,,,
html-keyboard-response,582,843644,null,"",null,,,,,,,,,,,,,,,
math-period,583,845184,2671.5,"",,,,,,,,,,,5,,,,,
html-keyboard-response,584,845300,null,"",null,,,,,,,,,,,,,,,
math-period,585,846441,null,"",,,,,,,,,,,,,,,,
html-keyboard-response,586,847444,null,"Recall Period!",null,,,,,,,,,,,,,,,
call-function,587,847445,,"",,,,,,,,,,,,,,,,
html-keyboard-response,588,847547,null,"",null,,,,,,,,,,,,,,,
recall-period,589,850956,22671.400000214577,"",,,,,,,,,,,blossom,,,,,
html-keyboard-response,590,851058,null,"",null,,,,,,,,,,,,,,,
recall-period,591,852450,4608.599999666214,"",,,,,,,,,,,hood,,,,,
html-keyboard-response,592,852552,null,"",null,,,,,,,,,,,,,,,
recall-period,593,853873,5425.700000047684,"",,,,,,,,,,,patrol,,,,,
html-keyboard-response,594,853974,null,"",null,,,,,,,,,,,,,,,
recall-period,595,855233,3609.5,"",,,,,,,,,,,slug,,,,,
html-keyboard-response,596,855335,null,"",null,,,,,,,,,,,,,,,
recall-period,597,922446,null,"",,,,,,,,,,,,,,,,
html-keyboard-response,598,922949,null,"Time's Up!",null,,,,,,,,,,,,,,,
html-keyboard-response,599,924121,1169.7999999523163,"<p> Good job! You have responded correctly to 99% of the trials. </p>
                      <p>Be sure to only press the spacebar if you see a red square, and please keep your accuracy above 80%.</p>
                      <p> Press any key to continue the experiment. </p>",32,,,,,,,,,,,,,,,
html-keyboard-response,600,925479,1356.1999999284744,"<div style=""font-size:48px;"">Press any key to begin list 6 of 16 </div>",54,,,,,,,,,,,,,,,
html-keyboard-response,601,927983,null,"<div style=""font-size:60px;"">+</div>",null,,,,,,,,,,,,,,,
html-keyboard-response,602,928186,null,"<div style=""font-size:42px;"">SUBURB</div><img id = ""stim"" ><div class = green_square id = topsquare></div>",null,encoding,word_square,,,0,topsquare,none,true,,,SUBURB,5,,,
html-keyboard-response,603,928489,null,"<div style=""font-size:42px;"">SUBURB</div>",null,,word,SUBURB,,,,,,,,,,,,
html-keyboard-response,604,929993,null,"",null,,word,SUBURB,,,,,,,,,,,,
html-keyboard-response,605,930196,null,"<div style=""font-size:42px;"">GUITAR</div><img id = ""stim"" ><div class = red_square id = bottomsquare></div>",null,encoding,word_square,,,1,bottomsquare,32,true,,,GUITAR,5,,,
html-keyboard-response,606,930500,166.89999997615814,"<div style=""font-size:42px;"">GUITAR</div>",32,,word,GUITAR,,,,,,,,,,,,
html-keyboard-response,607,932003,null,"",null,,word,GUITAR,,,,,,,,,,,,
html-keyboard-response,608,932206,null,"<div style=""font-size:42px;"">PLAQUE</div><img id = ""stim"" ><div class = green_square id = bottomsquare></div>",null,encoding,word_square,,,0,bottomsquare,none,true,,,PLAQUE,5,,,
html-keyboard-response,609,932508,null,"<div style=""font-size:42px;"">PLAQUE</div>",null,,word,PLAQUE,,,,,,,,,,,,
html-keyboard-response,610,934012,null,"",null,,word,PLAQUE,,,,,,,,,,,,
html-keyboard-response,611,934216,null,"<div style=""font-size:42px;"">HAMMER</div><img id = ""stim"" ><div class = green_square id = topsquare></div>",null,encoding,word_square,,,0,topsquare,none,true,,,HAMMER,5,,,
html-keyboard-response,612,934518,null,"<div style=""font-size:42px;"">HAMMER</div>",null,,word,HAMMER,,,,,,,,,,,,
html-keyboard-response,613,936020,null,"",null,,word,HAMMER,,,,,,,,,,,,
html-keyboard-response,614,936222,null,"<div style=""font-size:42px;"">COUSIN</div><img id = ""stim"" ><div class = red_square id = topsquare></div>",null,encoding,word_square,,,1,topsquare,32,true,,,COUSIN,5,,,
html-keyboard-response,615,936533,212.10000002384186,"<div style=""font-size:42px;"">COUSIN</div>",32,,word,COUSIN,,,,,,,,,,,,
html-keyboard-response,616,938036,null,"",null,,word,COUSIN,,,,,,,,,,,,
html-keyboard-response,617,938239,null,"<div style=""font-size:42px;"">SCRIBBLE</div><img id = ""stim"" ><div class = green_square id = bottomsquare></div>",null,encoding,word_square,,,0,bottomsquare,none,true,,,SCRIBBLE,5,,,
html-keyboard-response,618,938542,null,"<div style=""font-size:42px;"">SCRIBBLE</div>",null,,word,SCRIBBLE,,,,,,,,,,,,
html-keyboard-response,619,940047,null,"",null,,word,SCRIBBLE,,,,,,,,,,,,
html-keyboard-response,620,940251,null,"<div style=""font-size:42px;"">BEAVER</div><img id = ""stim"" ><div class = green_square id = topsquare></div>",null,encoding,word_square,,,0,topsquare,none,true,,,BEAVER,5,,,
html-keyboard-response,621,940555,null,"<div style=""font-size:42px;"">BEAVER</div>",null,,word,BEAVER,,,,,,,,,,,,
html-keyboard-response,622,942058,null,"",null,,word,BEAVER,,,,,,,,,,,,
html-keyboard-response,623,942265,null,"<div style=""font-size:42px;"">POSSUM</div><img id = ""stim"" ><div class = red_square id = bottomsquare></div>",null,encoding,word_square,,,1,bottomsquare,32,true,,,POSSUM,5,,,
html-keyboard-response,624,942569,155.19999992847443,"<div style=""font-size:42px;"">POSSUM</div>",32,,word,POSSUM,,,,,,,,,,,,
html-keyboard-response,625,944072,null,"",null,,word,POSSUM,,,,,,,,,,,,
html-keyboard-response,626,944277,null,"<div style=""font-size:42px;"">AWARD</div><img id = ""stim"" ><div class = red_square id = topsquare></div>",null,encoding,word_square,,,1,topsquare,32,true,,,AWARD,5,,,
html-keyboard-response,627,944579,null,"<div style=""font-size:42px;"">AWARD</div>",null,,word,AWARD,,,,,,,,,,,,
html-keyboard-response,628,946083,53.10000002384186,"",32,,word,AWARD,,,,,,,,,,,,
html-keyboard-response,629,946285,null,"<div style=""font-size:42px;"">MONEY</div><img id = ""stim"" ><div class = green_square id = bottomsquare></div>",null,encoding,word_square,,,0,bottomsquare,none,true,,,MONEY,5,,,
html-keyboard-response,630,946588,null,"<div style=""font-size:42px;"">MONEY</div>",null,,word,MONEY,,,,,,,,,,,,
html-keyboard-response,631,948091,null,"",null,,word,MONEY,,,,,,,,,,,,
html-keyboard-response,632,948294,null,"<div style=""font-size:42px;"">POET</div><img id = ""stim"" ><div class = green_square id = topsquare></div>",null,encoding,word_square,,,0,topsquare,none,true,,,POET,5,,,
html-keyboard-response,633,948597,null,"<div style=""font-size:42px;"">POET</div>",null,,word,POET,,,,,,,,,,,,
html-keyboard-response,634,950101,null,"",null,,word,POET,,,,,,,,,,,,
html-keyboard-response,635,950306,null,"<div style=""font-size:42px;"">POLICE</div><img id = ""stim"" ><div class = red_square id = bottomsquare></div>",null,encoding,word_square,,,1,bottomsquare,32,true,,,POLICE,5,,,
html-keyboard-response,636,950609,140.19999992847443,"<div style=""font-size:42px;"">POLICE</div>",32,,word,POLICE,,,,,,,,,,,,
html-keyboard-response,637,952112,null,"",null,,word,POLICE,,,,,,,,,,,,
html-keyboard-response,638,952313,null,"<div style=""font-size:42px;"">GRAVE</div><img id = ""stim"" ><div class = green_square id = bottomsquare></div>",null,encoding,word_square,,,0,bottomsquare,none,true,,,GRAVE,5,,,
html-keyboard-response,639,952616,null,"<div style=""font-size:42px;"">GRAVE</div>",null,,word,GRAVE,,,,,,,,,,,,
html-keyboard-response,640,954119,null,"",null,,word,GRAVE,,,,,,,,,,,,
html-keyboard-response,641,954322,null,"<div style=""font-size:42px;"">CUPBOARD</div><img id = ""stim"" ><div class = red_square id = topsquare></div>",null,encoding,word_square,,,1,topsquare,32,true,,,CUPBOARD,5,,,
html-keyboard-response,642,954623,214.89999997615814,"<div style=""font-size:42px;"">CUPBOARD</div>",32,,word,CUPBOARD,,,,,,,,,,,,
html-keyboard-response,643,956124,null,"",null,,word,CUPBOARD,,,,,,,,,,,,
html-keyboard-response,644,956327,null,"<div style=""font-size:42px;"">CRAB</div><img id = ""stim"" ><div class = red_square id = bottomsquare></div>",null,encoding,word_square,,,1,bottomsquare,32,true,,,CRAB,5,,,
html-keyboard-response,645,956629,null,"<div style=""font-size:42px;"">CRAB</div>",null,,word,CRAB,,,,,,,,,,,,
html-keyboard-response,646,958131,54.59999990463257,"",32,,word,CRAB,,,,,,,,,,,,
html-keyboard-response,647,958338,null,"<div style=""font-size:42px;"">BANQUET</div><img id = ""stim"" ><div class = red_square id = topsquare></div>",null,encoding,word_square,,,1,topsquare,32,true,,,BANQUET,5,,,
html-keyboard-response,648,958641,null,"<div style=""font-size:42px;"">BANQUET</div>",null,,word,BANQUET,,,,,,,,,,,,
html-keyboard-response,649,960144,62.700000047683716,"",32,,word,BANQUET,,,,,,,,,,,,
call-function,650,960146,,"",,,,,,,,,,,,,,,,
html-keyboard-response,651,960248,null,"",null,,,,,,,,,,,,,,,
math-period,652,962334,3181.2999999523163,"",,,,,,,,,,,5,,,,,
html-keyboard-response,653,962437,null,"",null,,,,,,,,,,,,,,,
math-period,654,963615,1928.3999998569489,"",,,,,,,,,,,5,,,,,
html-keyboard-response,655,963716,null,"",null,,,,,,,,,,,,,,,
math-period,656,964896,1988.3000000715256,"",,,,,,,,,,,3,,,,,
html-keyboard-response,657,964998,null,"",null,,,,,,,,,,,,,,,
math-period,658,966022,1748.1000000238419,"",,,,,,,,,,,2,,,,,
html-keyboard-response,659,966124,null,"",null,,,,,,,,,,,,,,,
math-period,660,967491,2490.5999999046326,"",,,,,,,,,,,5,,,,,
html-keyboard-response,661,967592,null,"",null,,,,,,,,,,,,,,,
math-period,662,969404,3399.8000000715256,"",,,,,,,,,,,2,,,,,
html-keyboard-response,663,969507,null,"",null,,,,,,,,,,,,,,,
math-period,664,971608,3095.100000023842,"",,,,,,,,,,,5,,,,,
html-keyboard-response,665,971710,null,"",null,,,,,,,,,,,,,,,
math-period,666,974272,4962.899999856949,"",,,,,,,,,,,2,,,,,
html-keyboard-response,667,974373,null,"",null,,,,,,,,,,,,,,,
math-period,668,976635,4272.799999952316,"",,,,,,,,,,,3,,,,,
html-keyboard-response,669,976737,null,"",null,,,,,,,,,,,,,,,
math-period,670,977815,1866.1000000238419,"",,,,,,,,,,,3,,,,,
html-keyboard-response,671,977917,null,"",null,,,,,,,,,,,,,,,
math-period,672,979078,1988.2000000476837,"",,,,,,,,,,,4,,,,,
html-keyboard-response,673,979181,null,"",null,,,,,,,,,,,,,,,
math-period,674,980829,2992.2000000476837,"",,,,,,,,,,,1,,,,,
html-keyboard-response,675,980931,null,"",null,,,,,,,,,,,,,,,
math-period,676,982571,2933.8000000715256,"",,,,,,,,,,,5,,,,,
html-keyboard-response,677,982672,null,"",null,,,,,,,,,,,,,,,
math-period,678,984148,1284.5,"",,,,,,,,,,,1,,,,,
html-keyboard-response,679,985151,null,"Recall Period!",null,,,,,,,,,,,,,,,
call-function,680,985152,,"",,,,,,,,,,,,,,,,
html-keyboard-response,681,985256,null,"",null,,,,,,,,,,,,,,,
recall-period,682,987536,10730.60000026226,"",,,,,,,,,,,guitar,,,,,
html-keyboard-response,683,987638,null,"",null,,,,,,,,,,,,,,,
recall-period,684,989402,7870.500000238419,"",,,,,,,,,,,cousin,,,,,
html-keyboard-response,685,989503,null,"",null,,,,,,,,,,,,,,,
recall-period,686,991266,4338.89999973774,"",,,,,,,,,,,crab,,,,,
html-keyboard-response,687,991368,null,"",null,,,,,,,,,,,,,,,
recall-period,688,1060153,null,"",,,,,,,,,,,,,,,,
html-keyboard-response,689,1060656,null,"Time's Up!",null,,,,,,,,,,,,,,,
html-keyboard-response,690,1062266,1607.7000000476837,"<p> Good job! You have responded correctly to 99% of the trials. </p>
                      <p>Be sure to only press the spacebar if you see a red square, and please keep your accuracy above 80%.</p>
                      <p> Press any key to continue the experiment. </p>",32,,,,,,,,,,,,,,,
html-keyboard-response,691,1063811,1542.6000000238419,"<div style=""font-size:48px;"">Press any key to begin list 7 of 16 </div>",55,,,,,,,,,,,,,,,
html-keyboard-response,692,1066314,null,"<div style=""font-size:60px;"">+</div>",null,,,,,,,,,,,,,,,
html-keyboard-response,693,1066516,null,"<div style=""font-size:42px;"">SPICE</div><img id = ""stim"" ><div class = green_square id = bottomsquare></div>",null,encoding,word_square,,,0,bottomsquare,none,true,,,SPICE,6,,,
html-keyboard-response,694,1066820,null,"<div style=""font-size:42px;"">SPICE</div>",null,,word,SPICE,,,,,,,,,,,,
html-keyboard-response,695,1068324,null,"",null,,word,SPICE,,,,,,,,,,,,
html-keyboard-response,696,1068534,null,"<div style=""font-size:42px;"">COMET</div><img id = ""stim"" ><div class = green_square id = topsquare></div>",null,encoding,word_square,,,0,topsquare,none,true,,,COMET,6,,,
html-keyboard-response,697,1068836,null,"<div style=""font-size:42px;"">COMET</div>",null,,word,COMET,,,,,,,,,,,,
html-keyboard-response,698,1070345,null,"",null,,word,COMET,,,,,,,,,,,,
html-keyboard-response,699,1070548,null,"<div style=""font-size:42px;"">SALMON</div><img id = ""stim"" ><div class = green_square id = bottomsquare></div>",null,encoding,word_square,,,0,bottomsquare,none,true,,,SALMON,6,,,
html-keyboard-response,700,1070851,null,"<div style=""font-size:42px;"">SALMON</div>",null,,word,SALMON,,,,,,,,,,,,
html-keyboard-response,701,1072355,null,"",null,,word,SALMON,,,,,,,,,,,,
html-keyboard-response,702,1072558,null,"<div style=""font-size:42px;"">FLIPPER</div><img id = ""stim"" ><div class = red_square id = topsquare></div>",null,encoding,word_square,,,1,topsquare,32,true,,,FLIPPER,6,,,
html-keyboard-response,703,1072862,153.20000004768372,"<div style=""font-size:42px;"">FLIPPER</div>",32,,word,FLIPPER,,,,,,,,,,,,
html-keyboard-response,704,1074367,null,"",null,,word,FLIPPER,,,,,,,,,,,,
html-keyboard-response,705,1074571,null,"<div style=""font-size:42px;"">HIKER</div><img id = ""stim"" ><div class = green_square id = topsquare></div>",null,encoding,word_square,,,0,topsquare,none,true,,,HIKER,6,,,
html-keyboard-response,706,1074875,null,"<div style=""font-size:42px;"">HIKER</div>",null,,word,HIKER,,,,,,,,,,,,
html-keyboard-response,707,1076380,null,"",null,,word,HIKER,,,,,,,,,,,,
html-keyboard-response,708,1076585,null,"<div style=""font-size:42px;"">BANKER</div><img id = ""stim"" ><div class = red_square id = bottomsquare></div>",null,encoding,word_square,,,1,bottomsquare,32,true,,,BANKER,6,,,
html-keyboard-response,709,1076889,223.79999995231628,"<div style=""font-size:42px;"">BANKER</div>",32,,word,BANKER,,,,,,,,,,,,
html-keyboard-response,710,1078395,null,"",null,,word,BANKER,,,,,,,,,,,,
html-keyboard-response,711,1078600,null,"<div style=""font-size:42px;"">DOCTOR</div><img id = ""stim"" ><div class = red_square id = topsquare></div>",null,encoding,word_square,,,1,topsquare,32,true,,,DOCTOR,6,,,
html-keyboard-response,712,1078905,239.89999997615814,"<div style=""font-size:42px;"">DOCTOR</div>",32,,word,DOCTOR,,,,,,,,,,,,
html-keyboard-response,713,1080409,null,"",null,,word,DOCTOR,,,,,,,,,,,,
html-keyboard-response,714,1080612,null,"<div style=""font-size:42px;"">MAPLE</div><img id = ""stim"" ><div class = green_square id = bottomsquare></div>",null,encoding,word_square,,,0,bottomsquare,none,true,,,MAPLE,6,,,
html-keyboard-response,715,1080916,null,"<div style=""font-size:42px;"">MAPLE</div>",null,,word,MAPLE,,,,,,,,,,,,
html-keyboard-response,716,1082423,null,"",null,,word,MAPLE,,,,,,,,,,,,
html-keyboard-response,717,1082627,null,"<div style=""font-size:42px;"">LUNCH</div><img id = ""stim"" ><div class = green_square id = topsquare></div>",null,encoding,word_square,,,0,topsquare,none,true,,,LUNCH,6,,,
html-keyboard-response,718,1082941,null,"<div style=""font-size:42px;"">LUNCH</div>",null,,word,LUNCH,,,,,,,,,,,,
html-keyboard-response,719,1084446,null,"",null,,word,LUNCH,,,,,,,,,,,,
html-keyboard-response,720,1084649,null,"<div style=""font-size:42px;"">CHAUFFEUR</div><img id = ""stim"" ><div class = red_square id = bottomsquare></div>",null,encoding,word_square,,,1,bottomsquare,32,true,,,CHAUFFEUR,6,,,
html-keyboard-response,721,1084952,230.89999997615814,"<div style=""font-size:42px;"">CHAUFFEUR</div>",32,,word,CHAUFFEUR,,,,,,,,,,,,
html-keyboard-response,722,1086457,null,"",null,,word,CHAUFFEUR,,,,,,,,,,,,
html-keyboard-response,723,1086661,null,"<div style=""font-size:42px;"">IDOL</div><img id = ""stim"" ><div class = red_square id = topsquare></div>",null,encoding,word_square,,,1,topsquare,32,true,,,IDOL,6,,,
html-keyboard-response,724,1086964,211.89999997615814,"<div style=""font-size:42px;"">IDOL</div>",32,,word,IDOL,,,,,,,,,,,,
html-keyboard-response,725,1088471,null,"",null,,word,IDOL,,,,,,,,,,,,
html-keyboard-response,726,1088672,null,"<div style=""font-size:42px;"">CANOE</div><img id = ""stim"" ><div class = green_square id = bottomsquare></div>",null,encoding,word_square,,,0,bottomsquare,none,true,,,CANOE,6,,,
html-keyboard-response,727,1088974,null,"<div style=""font-size:42px;"">CANOE</div>",null,,word,CANOE,,,,,,,,,,,,
html-keyboard-response,728,1090477,null,"",null,,word,CANOE,,,,,,,,,,,,
html-keyboard-response,729,1090679,null,"<div style=""font-size:42px;"">TRUCK</div><img id = ""stim"" ><div class = red_square id = bottomsquare></div>",null,encoding,word_square,,,1,bottomsquare,32,true,,,TRUCK,6,,,
html-keyboard-response,730,1090981,270.6999999284744,"<div style=""font-size:42px;"">TRUCK</div>",32,,word,TRUCK,,,,,,,,,,,,
html-keyboard-response,731,1092485,null,"",null,,word,TRUCK,,,,,,,,,,,,
html-keyboard-response,732,1092689,null,"<div style=""font-size:42px;"">BRIDGE</div><img id = ""stim"" ><div class = red_square id = topsquare></div>",null,encoding,word_square,,,1,topsquare,32,true,,,BRIDGE,6,,,
html-keyboard-response,733,1092993,null,"<div style=""font-size:42px;"">BRIDGE</div>",null,,word,BRIDGE,,,,,,,,,,,,
html-keyboard-response,734,1094497,104.29999995231628,"",32,,word,BRIDGE,,,,,,,,,,,,
html-keyboard-response,735,1094701,null,"<div style=""font-size:42px;"">TROMBONE</div><img id = ""stim"" ><div class = green_square id = topsquare></div>",null,encoding,word_square,,,0,topsquare,none,true,,,TROMBONE,6,,,
html-keyboard-response,736,1095005,null,"<div style=""font-size:42px;"">TROMBONE</div>",null,,word,TROMBONE,,,,,,,,,,,,
html-keyboard-response,737,1096510,null,"",null,,word,TROMBONE,,,,,,,,,,,,
html-keyboard-response,738,1096714,null,"<div style=""font-size:42px;"">TRANSPLANT</div><img id = ""stim"" ><div class = red_square id = bottomsquare></div>",null,encoding,word_square,,,1,bottomsquare,32,true,,,TRANSPLANT,6,,,
html-keyboard-response,739,1097018,194.59999990463257,"<div style=""font-size:42px;"">TRANSPLANT</div>",32,,word,TRANSPLANT,,,,,,,,,,,,
html-keyboard-response,740,1098522,null,"",null,,word,TRANSPLANT,,,,,,,,,,,,
call-function,741,1098524,,"",,,,,,,,,,,,,,,,
html-keyboard-response,742,1098627,null,"",null,,,,,,,,,,,,,,,
math-period,743,1100337,2959.7000000476837,"",,,,,,,,,,,4,,,,,
html-keyboard-response,744,1100441,null,"",null,,,,,,,,,,,,,,,
math-period,745,1102169,3128.299999833107,"",,,,,,,,,,,2,,,,,
html-keyboard-response,746,1102271,null,"",null,,,,,,,,,,,,,,,
math-period,747,1104273,3801.399999856949,"",,,,,,,,,,,2,,,,,
html-keyboard-response,748,1104375,null,"",null,,,,,,,,,,,,,,,
math-period,749,1105932,2875.899999856949,"",,,,,,,,,,,2,,,,,
html-keyboard-response,750,1106034,null,"",null,,,,,,,,,,,,,,,
math-period,751,1107289,2219.899999856949,"",,,,,,,,,,,3,,,,,
html-keyboard-response,752,1107390,null,"",null,,,,,,,,,,,,,,,
math-period,753,1108492,1895.2999999523163,"",,,,,,,,,,,3,,,,,
html-keyboard-response,754,1108593,null,"",null,,,,,,,,,,,,,,,
math-period,755,1110183,2566.899999976158,"",,,,,,,,,,,5,,,,,
html-keyboard-response,756,1110286,null,"",null,,,,,,,,,,,,,,,
math-period,757,1111845,2930,"",,,,,,,,,,,1,,,,,
html-keyboard-response,758,1111947,null,"",null,,,,,,,,,,,,,,,
math-period,759,1113608,3176.899999976158,"",,,,,,,,,,,1,,,,,
html-keyboard-response,760,1113722,null,"",null,,,,,,,,,,,,,,,
math-period,761,1115514,3399.7999999523163,"",,,,,,,,,,,3,,,,,
html-keyboard-response,762,1115616,null,"",null,,,,,,,,,,,,,,,
math-period,763,1117547,3648.2999999523163,"",,,,,,,,,,,3,,,,,
html-keyboard-response,764,1117651,null,"",null,,,,,,,,,,,,,,,
math-period,765,1119904,3479,"",,,,,,,,,,,3,,,,,
html-keyboard-response,766,1120005,null,"",null,,,,,,,,,,,,,,,
math-period,767,1121475,2562.899999976158,"",,,,,,,,,,,4,,,,,
html-keyboard-response,768,1121577,null,"",null,,,,,,,,,,,,,,,
math-period,769,1122526,null,"",,,,,,,,,,,,,,,,
html-keyboard-response,770,1123534,null,"Recall Period!",null,,,,,,,,,,,,,,,
call-function,771,1123535,,"",,,,,,,,,,,,,,,,
html-keyboard-response,772,1123638,null,"",null,,,,,,,,,,,,,,,
recall-period,773,1125713,11305.100000143051,"",,,,,,,,,,,flipper,,,,,
html-keyboard-response,774,1125816,null,"",null,,,,,,,,,,,,,,,
recall-period,775,1127690,7667.299999475479,"",,,,,,,,,,,banker,,,,,
html-keyboard-response,776,1127792,null,"",null,,,,,,,,,,,,,,,
recall-period,777,1129921,10215.100000143051,"",,,,,,,,,,,doctor,,,,,
html-keyboard-response,778,1130022,null,"",null,,,,,,,,,,,,,,,
recall-period,779,1131412,4223.700000286102,"",,,,,,,,,,,truck,,,,,
html-keyboard-response,780,1131514,null,"",null,,,,,,,,,,,,,,,
recall-period,781,1198537,null,"",,,,,,,,,,,,,,,,
html-keyboard-response,782,1199046,null,"Time's Up!",null,,,,,,,,,,,,,,,
html-keyboard-response,783,1200168,1117.3000000715256,"<p> Good job! You have responded correctly to 99% of the trials. </p>
                      <p>Be sure to only press the spacebar if you see a red square, and please keep your accuracy above 80%.</p>
                      <p> Press any key to continue the experiment. </p>",32,,,,,,,,,,,,,,,
html-keyboard-response,784,1201563,1393,"<div style=""font-size:48px;"">Press any key to begin list 8 of 16 </div>",56,,,,,,,,,,,,,,,
html-keyboard-response,785,1204067,null,"<div style=""font-size:60px;"">+</div>",null,,,,,,,,,,,,,,,
html-keyboard-response,786,1204270,null,"<div style=""font-size:42px;"">COD</div><img id = ""stim"" ><div class = red_square id = bottomsquare></div>",null,encoding,word_square,,,1,bottomsquare,32,true,,,COD,7,,,
html-keyboard-response,787,1204571,294.39999997615814,"<div style=""font-size:42px;"">COD</div>",32,,word,COD,,,,,,,,,,,,
html-keyboard-response,788,1206074,null,"",null,,word,COD,,,,,,,,,,,,
html-keyboard-response,789,1206277,null,"<div style=""font-size:42px;"">BOUQUET</div><img id = ""stim"" ><div class = green_square id = topsquare></div>",null,encoding,word_square,,,0,topsquare,none,true,,,BOUQUET,7,,,
html-keyboard-response,790,1206579,null,"<div style=""font-size:42px;"">BOUQUET</div>",null,,word,BOUQUET,,,,,,,,,,,,
html-keyboard-response,791,1208080,null,"",null,,word,BOUQUET,,,,,,,,,,,,
html-keyboard-response,792,1208284,null,"<div style=""font-size:42px;"">CANAL</div><img id = ""stim"" ><div class = red_square id = topsquare></div>",null,encoding,word_square,,,1,topsquare,32,true,,,CANAL,7,,,
html-keyboard-response,793,1208587,167.79999995231628,"<div style=""font-size:42px;"">CANAL</div>",32,,word,CANAL,,,,,,,,,,,,
html-keyboard-response,794,1210093,null,"",null,,word,CANAL,,,,,,,,,,,,
html-keyboard-response,795,1210296,null,"<div style=""font-size:42px;"">VALVE</div><img id = ""stim"" ><div class = red_square id = bottomsquare></div>",null,encoding,word_square,,,1,bottomsquare,32,true,,,VALVE,7,,,
html-keyboard-response,796,1210599,null,"<div style=""font-size:42px;"">VALVE</div>",null,,word,VALVE,,,,,,,,,,,,
html-keyboard-response,797,1212103,5.600000023841858,"",32,,word,VALVE,,,,,,,,,,,,
html-keyboard-response,798,1212306,null,"<div style=""font-size:42px;"">WALNUT</div><img id = ""stim"" ><div class = green_square id = bottomsquare></div>",null,encoding,word_square,,,0,bottomsquare,none,true,,,WALNUT,7,,,
html-keyboard-response,799,1212610,null,"<div style=""font-size:42px;"">WALNUT</div>",null,,word,WALNUT,,,,,,,,,,,,
html-keyboard-response,800,1214115,null,"",null,,word,WALNUT,,,,,,,,,,,,
html-keyboard-response,801,1214317,null,"<div style=""font-size:42px;"">HATCHET</div><img id = ""stim"" ><div class = red_square id = topsquare></div>",null,encoding,word_square,,,1,topsquare,32,true,,,HATCHET,7,,,
html-keyboard-response,802,1214621,211.20000004768372,"<div style=""font-size:42px;"">HATCHET</div>",32,,word,HATCHET,,,,,,,,,,,,
html-keyboard-response,803,1216125,null,"",null,,word,HATCHET,,,,,,,,,,,,
html-keyboard-response,804,1216329,null,"<div style=""font-size:42px;"">NICKEL</div><img id = ""stim"" ><div class = red_square id = bottomsquare></div>",null,encoding,word_square,,,1,bottomsquare,32,true,,,NICKEL,7,,,
html-keyboard-response,805,1216630,297.7999999523163,"<div style=""font-size:42px;"">NICKEL</div>",32,,word,NICKEL,,,,,,,,,,,,
html-keyboard-response,806,1218134,null,"",null,,word,NICKEL,,,,,,,,,,,,
html-keyboard-response,807,1218338,null,"<div style=""font-size:42px;"">HOOK</div><img id = ""stim"" ><div class = green_square id = topsquare></div>",null,encoding,word_square,,,0,topsquare,none,true,,,HOOK,7,,,
html-keyboard-response,808,1218642,null,"<div style=""font-size:42px;"">HOOK</div>",null,,word,HOOK,,,,,,,,,,,,
html-keyboard-response,809,1220146,null,"",null,,word,HOOK,,,,,,,,,,,,
html-keyboard-response,810,1220349,null,"<div style=""font-size:42px;"">FUNGUS</div><img id = ""stim"" ><div class = green_square id = bottomsquare></div>",null,encoding,word_square,,,0,bottomsquare,none,true,,,FUNGUS,7,,,
html-keyboard-response,811,1220652,null,"<div style=""font-size:42px;"">FUNGUS</div>",null,,word,FUNGUS,,,,,,,,,,,,
html-keyboard-response,812,1222156,null,"",null,,word,FUNGUS,,,,,,,,,,,,
html-keyboard-response,813,1222359,null,"<div style=""font-size:42px;"">PLATE</div><img id = ""stim"" ><div class = red_square id = topsquare></div>",null,encoding,word_square,,,1,topsquare,32,true,,,PLATE,7,,,
html-keyboard-response,814,1222662,162.39999997615814,"<div style=""font-size:42px;"">PLATE</div>",32,,word,PLATE,,,,,,,,,,,,
html-keyboard-response,815,1224179,null,"",null,,word,PLATE,,,,,,,,,,,,
html-keyboard-response,816,1224381,null,"<div style=""font-size:42px;"">FLEET</div><img id = ""stim"" ><div class = red_square id = bottomsquare></div>",null,encoding,word_square,,,1,bottomsquare,32,true,,,FLEET,7,,,
html-keyboard-response,817,1224684,null,"<div style=""font-size:42px;"">FLEET</div>",null,,word,FLEET,,,,,,,,,,,,
html-keyboard-response,818,1226187,33.59999990463257,"",32,,word,FLEET,,,,,,,,,,,,
html-keyboard-response,819,1226395,null,"<div style=""font-size:42px;"">COLONEL</div><img id = ""stim"" ><div class = green_square id = topsquare></div>",null,encoding,word_square,,,0,topsquare,none,true,,,COLONEL,7,,,
html-keyboard-response,820,1226697,null,"<div style=""font-size:42px;"">COLONEL</div>",null,,word,COLONEL,,,,,,,,,,,,
html-keyboard-response,821,1228199,null,"",null,,word,COLONEL,,,,,,,,,,,,
html-keyboard-response,822,1228402,null,"<div style=""font-size:42px;"">NEPHEW</div><img id = ""stim"" ><div class = red_square id = topsquare></div>",null,encoding,word_square,,,1,topsquare,32,true,,,NEPHEW,7,,,
html-keyboard-response,823,1228705,137.19999992847443,"<div style=""font-size:42px;"">NEPHEW</div>",32,,word,NEPHEW,,,,,,,,,,,,
html-keyboard-response,824,1230209,null,"",null,,word,NEPHEW,,,,,,,,,,,,
html-keyboard-response,825,1230413,null,"<div style=""font-size:42px;"">FRUIT</div><img id = ""stim"" ><div class = green_square id = bottomsquare></div>",null,encoding,word_square,,,0,bottomsquare,none,true,,,FRUIT,7,,,
html-keyboard-response,826,1230717,null,"<div style=""font-size:42px;"">FRUIT</div>",null,,word,FRUIT,,,,,,,,,,,,
html-keyboard-response,827,1232221,null,"",null,,word,FRUIT,,,,,,,,,,,,
html-keyboard-response,828,1232424,null,"<div style=""font-size:42px;"">LADY</div><img id = ""stim"" ><div class = green_square id = topsquare></div>",null,encoding,word_square,,,0,topsquare,none,true,,,LADY,7,,,
html-keyboard-response,829,1232727,null,"<div style=""font-size:42px;"">LADY</div>",null,,word,LADY,,,,,,,,,,,,
html-keyboard-response,830,1234230,null,"",null,,word,LADY,,,,,,,,,,,,
html-keyboard-response,831,1234433,null,"<div style=""font-size:42px;"">ORGAN</div><img id = ""stim"" ><div class = green_square id = bottomsquare></div>",null,encoding,word_square,,,0,bottomsquare,none,true,,,ORGAN,7,,,
html-keyboard-response,832,1234736,null,"<div style=""font-size:42px;"">ORGAN</div>",null,,word,ORGAN,,,,,,,,,,,,
html-keyboard-response,833,1236239,null,"",null,,word,ORGAN,,,,,,,,,,,,
call-function,834,1236242,,"",,,,,,,,,,,,,,,,
html-keyboard-response,835,1236344,null,"",null,,,,,,,,,,,,,,,
math-period,836,1238558,3891.7999999523163,"",,,,,,,,,,,3,,,,,
html-keyboard-response,837,1238659,null,"",null,,,,,,,,,,,,,,,
math-period,838,1239778,2007.7999999523163,"",,,,,,,,,,,3,,,,,
html-keyboard-response,839,1239880,null,"",null,,,,,,,,,,,,,,,
math-period,840,1241263,2283.5999999046326,"",,,,,,,,,,,4,,,,,
html-keyboard-response,841,1241366,null,"",null,,,,,,,,,,,,,,,
math-period,842,1242880,2222,"",,,,,,,,,,,4,,,,,
html-keyboard-response,843,1242983,null,"",null,,,,,,,,,,,,,,,
math-period,844,1244815,3292,"",,,,,,,,,,,2,,,,,
html-keyboard-response,845,1244916,null,"",null,,,,,,,,,,,,,,,
math-period,846,1246758,2979.100000023842,"",,,,,,,,,,,5,,,,,
html-keyboard-response,847,1246862,null,"",null,,,,,,,,,,,,,,,
math-period,848,1248625,3151,"",,,,,,,,,,,2,,,,,
html-keyboard-response,849,1248728,null,"",null,,,,,,,,,,,,,,,
math-period,850,1251090,4126.699999928474,"",,,,,,,,,,,1,,,,,
html-keyboard-response,851,1251193,null,"",null,,,,,,,,,,,,,,,
math-period,852,1254090,5134.200000047684,"",,,,,,,,,,,2,,,,,
html-keyboard-response,853,1254193,null,"",null,,,,,,,,,,,,,,,
math-period,854,1255593,2297.6999999284744,"",,,,,,,,,,,2,,,,,
html-keyboard-response,855,1255696,null,"",null,,,,,,,,,,,,,,,
math-period,856,1257566,3398.4999998807907,"",,,,,,,,,,,2,,,,,
html-keyboard-response,857,1257668,null,"",null,,,,,,,,,,,,,,,
math-period,858,1260245,null,"",,,,,,,,,,,,,,,,
html-keyboard-response,859,1261249,null,"Recall Period!",null,,,,,,,,,,,,,,,
call-function,860,1261255,,"",,,,,,,,,,,,,,,,
html-keyboard-response,861,1261358,null,"",null,,,,,,,,,,,,,,,
recall-period,862,1263040,4866.900000095367,"",,,,,,,,,,,cod,,,,,
html-keyboard-response,863,1263141,null,"",null,,,,,,,,,,,,,,,
recall-period,864,1265487,8184.299999713898,"",,,,,,,,,,,canal,,,,,
html-keyboard-response,865,1265589,null,"",null,,,,,,,,,,,,,,,
recall-period,866,1267281,5971.499999642372,"",,,,,,,,,,,valve,,,,,
html-keyboard-response,867,1267383,null,"",null,,,,,,,,,,,,,,,
recall-period,868,1270406,8792.5,"",,,,,,,,,,,plate,,,,,
html-keyboard-response,869,1270508,null,"",null,,,,,,,,,,,,,,,
recall-period,870,1336257,null,"",,,,,,,,,,,,,,,,
html-keyboard-response,871,1336762,null,"Time's Up!",null,,,,,,,,,,,,,,,
html-keyboard-response,872,1338659,1893.5,"<p> Good job! You have responded correctly to 99% of the trials. </p>
                      <p>Be sure to only press the spacebar if you see a red square, and please keep your accuracy above 80%.</p>
                      <p> Press any key to continue the experiment. </p>",32,,,,,,,,,,,,,,,
html-keyboard-response,873,1340048,1387.2999999523163,"<div style=""font-size:48px;"">Press any key to begin list 9 of 16 </div>",57,,,,,,,,,,,,,,,
html-keyboard-response,874,1342550,null,"<div style=""font-size:60px;"">+</div>",null,,,,,,,,,,,,,,,
html-keyboard-response,875,1342753,null,"<div style=""font-size:42px;"">CRIB</div><img id = ""stim"" ><div class = red_square id = topsquare></div>",null,encoding,word_square,,,1,topsquare,32,true,,,CRIB,8,,,
html-keyboard-response,876,1343057,null,"<div style=""font-size:42px;"">CRIB</div>",null,,word,CRIB,,,,,,,,,,,,
html-keyboard-response,877,1344562,9.199999928474426,"",32,,word,CRIB,,,,,,,,,,,,
html-keyboard-response,878,1344767,null,"<div style=""font-size:42px;"">TURKEY</div><img id = ""stim"" ><div class = red_square id = bottomsquare></div>",null,encoding,word_square,,,1,bottomsquare,32,true,,,TURKEY,8,,,
html-keyboard-response,879,1345070,225.5,"<div style=""font-size:42px;"">TURKEY</div>",32,,word,TURKEY,,,,,,,,,,,,
html-keyboard-response,880,1346574,null,"",null,,word,TURKEY,,,,,,,,,,,,
html-keyboard-response,881,1346783,null,"<div style=""font-size:42px;"">GRIZZLY</div><img id = ""stim"" ><div class = red_square id = topsquare></div>",null,encoding,word_square,,,1,topsquare,32,true,,,GRIZZLY,8,,,
html-keyboard-response,882,1347086,218.39999997615814,"<div style=""font-size:42px;"">GRIZZLY</div>",32,,word,GRIZZLY,,,,,,,,,,,,
html-keyboard-response,883,1348590,null,"",null,,word,GRIZZLY,,,,,,,,,,,,
html-keyboard-response,884,1348798,null,"<div style=""font-size:42px;"">HARP</div><img id = ""stim"" ><div class = green_square id = bottomsquare></div>",null,encoding,word_square,,,0,bottomsquare,none,true,,,HARP,8,,,
html-keyboard-response,885,1349101,null,"<div style=""font-size:42px;"">HARP</div>",null,,word,HARP,,,,,,,,,,,,
html-keyboard-response,886,1350606,null,"",null,,word,HARP,,,,,,,,,,,,
html-keyboard-response,887,1350816,null,"<div style=""font-size:42px;"">FIDDLE</div><img id = ""stim"" ><div class = red_square id = bottomsquare></div>",null,encoding,word_square,,,1,bottomsquare,32,true,,,FIDDLE,8,,,
html-keyboard-response,888,1351126,181,"<div style=""font-size:42px;"">FIDDLE</div>",32,,word,FIDDLE,,,,,,,,,,,,
html-keyboard-response,889,1352633,null,"",null,,word,FIDDLE,,,,,,,,,,,,
html-keyboard-response,890,1352838,null,"<div style=""font-size:42px;"">STAMP</div><img id = ""stim"" ><div class = green_square id = topsquare></div>",null,encoding,word_square,,,0,topsquare,none,true,,,STAMP,8,,,
html-keyboard-response,891,1353142,null,"<div style=""font-size:42px;"">STAMP</div>",null,,word,STAMP,,,,,,,,,,,,
html-keyboard-response,892,1354647,null,"",null,,word,STAMP,,,,,,,,,,,,
html-keyboard-response,893,1354852,null,"<div style=""font-size:42px;"">SEAL</div><img id = ""stim"" ><div class = red_square id = topsquare></div>",null,encoding,word_square,,,1,topsquare,32,true,,,SEAL,8,,,
html-keyboard-response,894,1355154,116.89999997615814,"<div style=""font-size:42px;"">SEAL</div>",32,,word,SEAL,,,,,,,,,,,,
html-keyboard-response,895,1356658,null,"",null,,word,SEAL,,,,,,,,,,,,
html-keyboard-response,896,1356862,null,"<div style=""font-size:42px;"">PANTHER</div><img id = ""stim"" ><div class = green_square id = bottomsquare></div>",null,encoding,word_square,,,0,bottomsquare,none,true,,,PANTHER,8,,,
html-keyboard-response,897,1357166,null,"<div style=""font-size:42px;"">PANTHER</div>",null,,word,PANTHER,,,,,,,,,,,,
html-keyboard-response,898,1358672,null,"",null,,word,PANTHER,,,,,,,,,,,,
html-keyboard-response,899,1358874,null,"<div style=""font-size:42px;"">SHAMPOO</div><img id = ""stim"" ><div class = green_square id = topsquare></div>",null,encoding,word_square,,,0,topsquare,none,true,,,SHAMPOO,8,,,
html-keyboard-response,900,1359176,null,"<div style=""font-size:42px;"">SHAMPOO</div>",null,,word,SHAMPOO,,,,,,,,,,,,
html-keyboard-response,901,1360678,null,"",null,,word,SHAMPOO,,,,,,,,,,,,
html-keyboard-response,902,1360881,null,"<div style=""font-size:42px;"">SENATE</div><img id = ""stim"" ><div class = red_square id = bottomsquare></div>",null,encoding,word_square,,,1,bottomsquare,32,true,,,SENATE,8,,,
html-keyboard-response,903,1361183,157.39999997615814,"<div style=""font-size:42px;"">SENATE</div>",32,,word,SENATE,,,,,,,,,,,,
html-keyboard-response,904,1362687,null,"",null,,word,SENATE,,,,,,,,,,,,
html-keyboard-response,905,1362895,null,"<div style=""font-size:42px;"">STOMACH</div><img id = ""stim"" ><div class = green_square id = bottomsquare></div>",null,encoding,word_square,,,0,bottomsquare,none,true,,,STOMACH,8,,,
html-keyboard-response,906,1363199,null,"<div style=""font-size:42px;"">STOMACH</div>",null,,word,STOMACH,,,,,,,,,,,,
