trial_type,trial_index,time_elapsed,rt,stimulus,key_press,exp_phase,test_part,word,task,targ_cond,sq_pos,correctKeyCode,correct,value,response,Word,List,RecResp,serial_pos,colorChosen
pavlovia,0,2591,,"",,,,,,,,,,,,,,,,
external-html,1,6783,4048.600000143051,"",,,,,,,,,,,,,,,,
html-keyboard-response,2,23589,16802.599999904633,"Welcome to the experiment. Press any key to begin.",32,,,,,,,,,,,,,,,
html-keyboard-response,3,39700,16109.799999952316,"<p>You will see a list of words and colored squares in the following task.<p><p>Press the spacebar whenever you see a red square.<p><p>Do not press a key if the square is green.<p><p>Press the spacebar to continue.</p>",32,,,,,,,,,,,,,,,
html-keyboard-response,4,52623,12414.799999952316,"<p>Please try to remember as many of the words as you can, and try to think about the meaning of each word as it appears.<p><p>After the detection and encoding task you will be asked to solve some math problems for 24 seconds.<p> Please solve as many problems as you can in the time given. <p><p><p>Press the spacebar to continue.</p>",32,,,,,,,,,,,,,,,
html-keyboard-response,5,70070,16943.5,"After solving the math problems, you will be asked to type in as many words <p>from the previous list as you can remember for 75 seconds.<p> If you finish recalling before the 75 seconds are up,<p> just sit tight and try to think of any more words you could have missed. <p><p><p>Press the spacebar to continue.</p>",32,,,,,,,,,,,,,,,
html-keyboard-response,6,81437,10865.400000095367,"There will be 16 lists of words and recall, followed  by<p><p> a recognition phase. The experiment is expected to take up to 90 minutes.<p>We will begin with a brief practice session.<p>Press the spacebar to begin the practice.</p>",32,,,,,,,,,,,,,,,
html-keyboard-response,7,83958,null,"<div style=""font-size:60px;"">+</div>",null,,,,,,,,,,,,,,,
html-keyboard-response,8,84175,null,"<div style=""font-size:42px;"">HAPPY</div><img id = ""stim"" ><div class = green_square id = ""bottomsquare"" ></div>",null,practice,word_square,HAPPY,prac_response,0,Bottom,none,true,,,,,,,
html-keyboard-response,9,84487,null,"<div style=""font-size:42px;"">HAPPY</div>",null,,word,HAPPY,,,,,,,,,,,,
html-keyboard-response,10,85997,null,"",null,,word,HAPPY,,,,,,,,,,,,
html-keyboard-response,11,86200,null,"<div style=""font-size:42px;"">COLD</div><img id = ""stim"" ><div class = red_square id = ""bottomsquare"" ></div>",null,practice,word_square,COLD,prac_response,1,Bottom,32,true,,,,,,,
html-keyboard-response,12,86501,292.90000009536743,"<div style=""font-size:42px;"">COLD</div>",32,,word,COLD,,,,,,,,,,,,
html-keyboard-response,13,88009,null,"",null,,word,COLD,,,,,,,,,,,,
html-keyboard-response,14,88212,null,"<div style=""font-size:42px;"">HEAVY</div><img id = ""stim"" ><div class = red_square id = ""topsquare"" ></div>",null,practice,word_square,HEAVY,prac_response,1,Top,32,true,,,,,,,
html-keyboard-response,15,88514,281.10000014305115,"<div style=""font-size:42px;"">HEAVY</div>",32,,word,HEAVY,,,,,,,,,,,,
html-keyboard-response,16,90016,null,"",null,,word,HEAVY,,,,,,,,,,,,
html-keyboard-response,17,90223,null,"<div style=""font-size:42px;"">FUNNY</div><img id = ""stim"" ><div class = green_square id = ""topsquare"" ></div>",null,practice,word_square,FUNNY,prac_response,0,Top,none,true,,,,,,,
html-keyboard-response,18,90534,null,"<div style=""font-size:42px;"">FUNNY</div>",null,,word,FUNNY,,,,,,,,,,,,
html-keyboard-response,19,92042,null,"",null,,word,FUNNY,,,,,,,,,,,,
html-keyboard-response,20,92244,null,"<div style=""font-size:42px;"">SCARY</div><img id = ""stim"" ><div class = red_square id = ""bottomsquare"" ></div>",null,practice,word_square,SCARY,prac_response,1,Bottom,32,true,,,,,,,
html-keyboard-response,21,92553,171.5,"<div style=""font-size:42px;"">SCARY</div>",32,,word,SCARY,,,,,,,,,,,,
html-keyboard-response,22,94064,null,"",null,,word,SCARY,,,,,,,,,,,,
html-keyboard-response,23,94281,null,"<div style=""font-size:42px;"">PEACEFUL</div><img id = ""stim"" ><div class = red_square id = ""topsquare"" ></div>",null,practice,word_square,PEACEFUL,prac_response,1,Top,32,true,,,,,,,
html-keyboard-response,24,94582,260.90000009536743,"<div style=""font-size:42px;"">PEACEFUL</div>",32,,word,PEACEFUL,,,,,,,,,,,,
html-keyboard-response,25,96092,null,"",null,,word,PEACEFUL,,,,,,,,,,,,
html-keyboard-response,26,96294,null,"<div style=""font-size:42px;"">LITTLE</div><img id = ""stim"" ><div class = green_square id = ""bottomsquare"" ></div>",null,practice,word_square,LITTLE,prac_response,0,Bottom,none,false,,,,,,,
html-keyboard-response,27,96606,null,"<div style=""font-size:42px;"">LITTLE</div>",null,,word,LITTLE,,,,,,,,,,,,
html-keyboard-response,28,98119,52.60000014305115,"",32,,word,LITTLE,,,,,,,,,,,,
html-keyboard-response,29,98322,null,"<div style=""font-size:42px;"">TIRED</div><img id = ""stim"" ><div class = green_square id = ""topsquare"" ></div>",null,practice,word_square,TIRED,prac_response,0,Top,none,true,,,,,,,
html-keyboard-response,30,98635,null,"<div style=""font-size:42px;"">TIRED</div>",null,,word,TIRED,,,,,,,,,,,,
html-keyboard-response,31,100147,null,"",null,,word,TIRED,,,,,,,,,,,,
html-keyboard-response,32,100362,null,"<div style=""font-size:42px;"">ENTERTAINING</div><img id = ""stim"" ><div class = green_square id = ""bottomsquare"" ></div>",null,practice,word_square,ENTERTAINING,prac_response,0,Bottom,none,true,,,,,,,
html-keyboard-response,33,100674,null,"<div style=""font-size:42px;"">ENTERTAINING</div>",null,,word,ENTERTAINING,,,,,,,,,,,,
html-keyboard-response,34,102182,null,"",null,,word,ENTERTAINING,,,,,,,,,,,,
html-keyboard-response,35,102386,null,"<div style=""font-size:42px;"">GRATEFUL</div><img id = ""stim"" ><div class = red_square id = ""bottomsquare"" ></div>",null,practice,word_square,GRATEFUL,prac_response,1,Bottom,32,true,,,,,,,
html-keyboard-response,36,102696,131.89999985694885,"<div style=""font-size:42px;"">GRATEFUL</div>",32,,word,GRATEFUL,,,,,,,,,,,,
html-keyboard-response,37,104203,null,"",null,,word,GRATEFUL,,,,,,,,,,,,
html-keyboard-response,38,104418,null,"<div style=""font-size:42px;"">LOUD</div><img id = ""stim"" ><div class = green_square id = ""topsquare"" ></div>",null,practice,word_square,LOUD,prac_response,0,Top,none,true,,,,,,,
html-keyboard-response,39,104731,null,"<div style=""font-size:42px;"">LOUD</div>",null,,word,LOUD,,,,,,,,,,,,
html-keyboard-response,40,106239,null,"",null,,word,LOUD,,,,,,,,,,,,
html-keyboard-response,41,106442,null,"<div style=""font-size:42px;"">SMART</div><img id = ""stim"" ><div class = red_square id = ""topsquare"" ></div>",null,practice,word_square,SMART,prac_response,1,Top,32,true,,,,,,,
html-keyboard-response,42,106756,217.59999990463257,"<div style=""font-size:42px;"">SMART</div>",32,,word,SMART,,,,,,,,,,,,
html-keyboard-response,43,108258,null,"",null,,word,SMART,,,,,,,,,,,,
html-keyboard-response,44,108460,null,"<div style=""font-size:42px;"">SMOOTH</div><img id = ""stim"" ><div class = red_square id = ""bottomsquare"" ></div>",null,practice,word_square,SMOOTH,prac_response,1,Bottom,32,true,,,,,,,
html-keyboard-response,45,108775,269.30000019073486,"<div style=""font-size:42px;"">SMOOTH</div>",32,,word,SMOOTH,,,,,,,,,,,,
html-keyboard-response,46,110282,null,"",null,,word,SMOOTH,,,,,,,,,,,,
html-keyboard-response,47,110486,null,"<div style=""font-size:42px;"">DISHONEST</div><img id = ""stim"" ><div class = green_square id = ""bottomsquare"" ></div>",null,practice,word_square,DISHONEST,prac_response,0,Bottom,none,true,,,,,,,
html-keyboard-response,48,110796,null,"<div style=""font-size:42px;"">DISHONEST</div>",null,,word,DISHONEST,,,,,,,,,,,,
html-keyboard-response,49,112302,null,"",null,,word,DISHONEST,,,,,,,,,,,,
html-keyboard-response,50,112518,null,"<div style=""font-size:42px;"">WEALTHY</div><img id = ""stim"" ><div class = red_square id = ""topsquare"" ></div>",null,practice,word_square,WEALTHY,prac_response,1,Top,32,true,,,,,,,
html-keyboard-response,51,112831,137.29999995231628,"<div style=""font-size:42px;"">WEALTHY</div>",32,,word,WEALTHY,,,,,,,,,,,,
html-keyboard-response,52,114332,null,"",null,,word,WEALTHY,,,,,,,,,,,,
html-keyboard-response,53,114547,null,"<div style=""font-size:42px;"">BEAUTIFUL</div><img id = ""stim"" ><div class = green_square id = ""topsquare"" ></div>",null,practice,word_square,BEAUTIFUL,prac_response,0,Top,none,true,,,,,,,
html-keyboard-response,54,114856,null,"<div style=""font-size:42px;"">BEAUTIFUL</div>",null,,word,BEAUTIFUL,,,,,,,,,,,,
html-keyboard-response,55,116357,null,"",null,,word,BEAUTIFUL,,,,,,,,,,,,
html-keyboard-response,56,124183,7824.199999809265,"<p> Good job! You responded correctly to 94% of the trials. </p>
                  <p>Be sure to only press the spacebar if you see a red square, and please keep your accuracy above 80%.</p>
                  <p>We're going to try once more to make sure you understand the task. press any key to continue. </p>",32,,,,,,,,,,,,,,,
html-keyboard-response,57,126810,2625.9000000953674,"<p>You will see a list of words and colored squares in the following task.<p><p>Press the spacebar whenever you see a red square.<p><p>Do not press a key if the square is green<p><p>Press the spacebar to continue.</p>",32,,,,,,,,,,,,,,,
html-keyboard-response,58,129334,null,"<div style=""font-size:60px;"">+</div>",null,,,,,,,,,,,,,,,
html-keyboard-response,59,129536,null,"<div style=""font-size:42px;"">HAPPY</div><img id = ""stim"" ><div class = green_square id = ""bottomsquare"" ></div>",null,practice2,word_square,HAPPY,prac_response,0,Bottom,none,true,,,,,,,
html-keyboard-response,60,129851,null,"<div style=""font-size:42px;"">HAPPY</div>",null,,word,HAPPY,,,,,,,,,,,,
html-keyboard-response,61,131355,null,"",null,,word,HAPPY,,,,,,,,,,,,
html-keyboard-response,62,131561,null,"<div style=""font-size:42px;"">COLD</div><img id = ""stim"" ><div class = red_square id = ""bottomsquare"" ></div>",null,practice2,word_square,,prac_response,1,Bottom,32,true,,,,,,,
html-keyboard-response,63,131872,106.20000004768372,"<div style=""font-size:42px;"">COLD</div>",32,,word,COLD,,,,,,,,,,,,
html-keyboard-response,64,133385,null,"",null,,word,COLD,,,,,,,,,,,,
html-keyboard-response,65,133602,null,"<div style=""font-size:42px;"">HEAVY</div><img id = ""stim"" ><div class = red_square id = ""topsquare"" ></div>",null,practice2,word_square,,prac_response,1,Top,32,true,,,,,,,
html-keyboard-response,66,133912,163.70000004768372,"<div style=""font-size:42px;"">HEAVY</div>",32,,word,HEAVY,,,,,,,,,,,,
html-keyboard-response,67,135419,null,"",null,,word,HEAVY,,,,,,,,,,,,
html-keyboard-response,68,135623,null,"<div style=""font-size:42px;"">FUNNY</div><img id = ""stim"" ><div class = green_square id = ""topsquare"" ></div>",null,practice2,word_square,,prac_response,0,Top,none,true,,,,,,,
html-keyboard-response,69,135934,null,"<div style=""font-size:42px;"">FUNNY</div>",null,,word,FUNNY,,,,,,,,,,,,
html-keyboard-response,70,137439,null,"",null,,word,FUNNY,,,,,,,,,,,,
html-keyboard-response,71,137641,null,"<div style=""font-size:42px;"">SCARY</div><img id = ""stim"" ><div class = red_square id = ""bottomsquare"" ></div>",null,practice2,word_square,,prac_response,1,Bottom,32,true,,,,,,,
html-keyboard-response,72,137952,164.39999985694885,"<div style=""font-size:42px;"">SCARY</div>",32,,word,SCARY,,,,,,,,,,,,
html-keyboard-response,73,139465,null,"",null,,word,SCARY,,,,,,,,,,,,
html-keyboard-response,74,139682,null,"<div style=""font-size:42px;"">PEACEFUL</div><img id = ""stim"" ><div class = red_square id = ""topsquare"" ></div>",null,practice2,word_square,,prac_response,1,Top,32,true,,,,,,,
html-keyboard-response,75,139998,134.80000019073486,"<div style=""font-size:42px;"">PEACEFUL</div>",32,,word,PEACEFUL,,,,,,,,,,,,
html-keyboard-response,76,141508,null,"",null,,word,PEACEFUL,,,,,,,,,,,,
html-keyboard-response,77,141711,null,"<div style=""font-size:42px;"">LITTLE</div><img id = ""stim"" ><div class = green_square id = ""bottomsquare"" ></div>",null,practice2,word_square,LITTLE,prac_response,0,Bottom,none,true,,,,,,,
html-keyboard-response,78,142027,null,"<div style=""font-size:42px;"">LITTLE</div>",null,,word,LITTLE,,,,,,,,,,,,
html-keyboard-response,79,143533,null,"",null,,word,LITTLE,,,,,,,,,,,,
html-keyboard-response,80,143738,null,"<div style=""font-size:42px;"">TIRED</div><img id = ""stim"" ><div class = green_square id = ""topsquare"" ></div>",null,practice2,word_square,,prac_response,0,Top,none,true,,,,,,,
html-keyboard-response,81,144049,null,"<div style=""font-size:42px;"">TIRED</div>",null,,word,TIRED,,,,,,,,,,,,
html-keyboard-response,82,145561,null,"",null,,word,TIRED,,,,,,,,,,,,
html-keyboard-response,83,145776,null,"<div style=""font-size:42px;"">ENTERTAINING</div><img id = ""stim"" ><div class = green_square id = ""bottomsquare"" ></div>",null,practice2,word_square,ENTERTAINING,prac_response,0,Bottom,none,true,,,,,,,
html-keyboard-response,84,146090,null,"<div style=""font-size:42px;"">ENTERTAINING</div>",null,,word,ENTERTAINING,,,,,,,,,,,,
html-keyboard-response,85,147600,null,"",null,,word,ENTERTAINING,,,,,,,,,,,,
html-keyboard-response,86,147805,null,"<div style=""font-size:42px;"">GRATEFUL</div><img id = ""stim"" ><div class = red_square id = ""bottomsquare"" ></div>",null,practice2,word_square,,prac_response,1,Bottom,32,true,,,,,,,
html-keyboard-response,87,148117,144.89999985694885,"<div style=""font-size:42px;"">GRATEFUL</div>",32,,word,GRATEFUL,,,,,,,,,,,,
html-keyboard-response,88,149630,null,"",null,,word,GRATEFUL,,,,,,,,,,,,
html-keyboard-response,89,149833,null,"<div style=""font-size:42px;"">LOUD</div><img id = ""stim"" ><div class = green_square id = ""topsquare"" ></div>",null,practice2,word_square,,prac_response,0,Top,none,true,,,,,,,
html-keyboard-response,90,150145,null,"<div style=""font-size:42px;"">LOUD</div>",null,,word,LOUD,,,,,,,,,,,,
html-keyboard-response,91,151647,null,"",null,,word,LOUD,,,,,,,,,,,,
html-keyboard-response,92,151849,null,"<div style=""font-size:42px;"">SMART</div><img id = ""stim"" ><div class = red_square id = ""topsquare"" ></div>",null,practice2,word_square,,prac_response,1,Top,32,true,,,,,,,
html-keyboard-response,93,152159,151.5,"<div style=""font-size:42px;"">SMART</div>",32,,word,SMART,,,,,,,,,,,,
html-keyboard-response,94,153671,null,"",null,,word,SMART,,,,,,,,,,,,
html-keyboard-response,95,153876,null,"<div style=""font-size:42px;"">SMOOTH</div><img id = ""stim"" ><div class = red_square id = ""bottomsquare"" ></div>",null,practice2,word_square,,prac_response,1,Bottom,32,true,,,,,,,
html-keyboard-response,96,154178,240.29999995231628,"<div style=""font-size:42px;"">SMOOTH</div>",32,,word,SMOOTH,,,,,,,,,,,,
html-keyboard-response,97,155683,null,"",null,,word,SMOOTH,,,,,,,,,,,,
html-keyboard-response,98,155885,null,"<div style=""font-size:42px;"">DISHONEST</div><img id = ""stim"" ><div class = green_square id = ""bottomsquare"" ></div>",null,practice2,word_square,DISHONEST,prac_response,0,Bottom,none,true,,,,,,,
html-keyboard-response,99,156198,null,"<div style=""font-size:42px;"">DISHONEST</div>",null,,word,DISHONEST,,,,,,,,,,,,
html-keyboard-response,100,157705,null,"",null,,word,DISHONEST,,,,,,,,,,,,
html-keyboard-response,101,157909,null,"<div style=""font-size:42px;"">WEALTHY</div><img id = ""stim"" ><div class = red_square id = ""topsquare"" ></div>",null,practice2,word_square,,prac_response,1,Top,32,true,,,,,,,
html-keyboard-response,102,158217,171.79999995231628,"<div style=""font-size:42px;"">WEALTHY</div>",32,,word,WEALTHY,,,,,,,,,,,,
html-keyboard-response,103,159723,null,"",null,,word,WEALTHY,,,,,,,,,,,,
html-keyboard-response,104,159925,null,"<div style=""font-size:42px;"">BEAUTIFUL</div><img id = ""stim"" ><div class = green_square id = ""topsquare"" ></div>",null,practice2,word_square,,prac_response,0,Top,none,true,,,,,,,
html-keyboard-response,105,160233,null,"<div style=""font-size:42px;"">BEAUTIFUL</div>",null,,word,BEAUTIFUL,,,,,,,,,,,,
html-keyboard-response,106,161749,null,"",null,,word,BEAUTIFUL,,,,,,,,,,,,
html-keyboard-response,107,166160,4410.700000047684,"<p> Good job! You responded correctly to 100% of the trials. </p>
                    <p>Be sure to only press the spacebar if you see a red square, and please keep your accuracy above 80%.</p>
                    <p>Press any key to begin the math and recall sections. Thank you! </p>",32,,,,,,,,,,,,,,,
call-function,108,166161,,"",,,,,,,,,,,,,,,,
html-keyboard-response,109,166264,null,"",null,,,,,,,,,,,,,,,
math-period,110,171063,8229.100000143051,"",,,,,,,,,,,3,,,,,
html-keyboard-response,111,171165,null,"",null,,,,,,,,,,,,,,,
math-period,112,175792,6821.899999856949,"",,,,,,,,,,,3,,,,,
html-keyboard-response,113,175896,null,"",null,,,,,,,,,,,,,,,
math-period,114,177501,2432.7000002861023,"",,,,,,,,,,,3,,,,,
html-keyboard-response,115,177612,null,"",null,,,,,,,,,,,,,,,
math-period,116,179584,6051.800000190735,"",,,,,,,,,,,5,,,,,
html-keyboard-response,117,179686,null,"",null,,,,,,,,,,,,,,,
math-period,118,180778,1882.8000001907349,"",,,,,,,,,,,2,,,,,
html-keyboard-response,119,180888,null,"",null,,,,,,,,,,,,,,,
math-period,120,182850,3461.5999999046326,"",,,,,,,,,,,1,,,,,
html-keyboard-response,121,182961,null,"",null,,,,,,,,,,,,,,,
math-period,122,183985,1787.5999999046326,"",,,,,,,,,,,3,,,,,
html-keyboard-response,123,184087,null,"",null,,,,,,,,,,,,,,,
math-period,124,185419,2379.5,"",,,,,,,,,,,3,,,,,
html-keyboard-response,125,185521,null,"",null,,,,,,,,,,,,,,,
math-period,126,185593,71.10000014305115,"",,,,,,,,,,,,,,,,
html-keyboard-response,127,185702,null,"",null,,,,,,,,,,,,,,,
math-period,128,189058,6294.199999809265,"",,,,,,,,,,,1,,,,,
html-keyboard-response,129,189159,null,"",null,,,,,,,,,,,,,,,
math-period,130,190166,null,"",,,,,,,,,,,,,,,,
html-keyboard-response,131,191181,null,"Recall Period!",null,,,,,,,,,,,,,,,
call-function,132,191181,,"",,,,,,,,,,,,,,,,
html-keyboard-response,133,191282,null,"",null,,,,,,,,,,,,,,,
recall-period,134,195610,7980,"",,,,,,,,,,, ,,,,,
html-keyboard-response,135,195715,null,"",null,,,,,,,,,,,,,,,
recall-period,136,202254,30777.199999809265,"",,,,,,,,,,,capslockhacapslock,,,,,
html-keyboard-response,137,202355,null,"",null,,,,,,,,,,,,,,,
recall-period,138,204005,6379.200000286102,"",,,,,,,,,,,happy,,,,,
html-keyboard-response,139,204106,null,"",null,,,,,,,,,,,,,,,
recall-period,140,205068,2715.8000004291534,"",,,,,,,,,,,cold,,,,,
html-keyboard-response,141,205169,null,"",null,,,,,,,,,,,,,,,
recall-period,142,208502,15238.100000619888,"",,,,,,,,,,,wealthy,,,,,
html-keyboard-response,143,208604,null,"",null,,,,,,,,,,,,,,,
recall-period,144,210686,11291,"",,,,,,,,,,,little,,,,,
html-keyboard-response,145,210787,null,"",null,,,,,,,,,,,,,,,
recall-period,146,225817,241928.70000338554,"",,,,,,,,,,,scary,,,,,
html-keyboard-response,147,225926,null,"",null,,,,,,,,,,,,,,,
recall-period,148,228979,22056.100001096725,"",,,,,,,,,,,beautiful,,,,,
html-keyboard-response,149,229093,null,"",null,,,,,,,,,,,,,,,
recall-period,150,235446,40109.2000002861,"",,,,,,,,,,,little,,,,,
html-keyboard-response,151,235547,null,"",null,,,,,,,,,,,,,,,
recall-period,152,256388,239607.70000100136,"",,,,,,,,,,,dishonest,,,,,
html-keyboard-response,153,256489,null,"",null,,,,,,,,,,,,,,,
recall-period,154,265572,35216.900000333786,"",,,,,,,,,,,run,,,,,
html-keyboard-response,155,265691,null,"",null,,,,,,,,,,,,,,,
recall-period,156,266186,null,"",,,,,,,,,,,,,,,,
html-keyboard-response,157,266699,null,"Time's Up!",null,,,,,,,,,,,,,,,
html-keyboard-response,158,270157,3457.4000000953674,"<p>We will now begin the experiment!<p><p>Please try to remember all words from each list.<p><p>Press the spacebar whenever you see a red square.<p><p><p><p>Press the spacebar to begin.</p>",32,,,,,,,,,,,,,,,
html-keyboard-response,159,274626,3960,"<div style=""font-size:48px;"">Press any key to begin list 1 of 16 </div>",32,,,,,,,,,,,,,,,
html-keyboard-response,160,277138,null,"<div style=""font-size:60px;"">+</div>",null,,,,,,,,,,,,,,,
html-keyboard-response,161,277355,null,"<div style=""font-size:42px;"">BRACELET</div><img id = ""stim"" ><div class = red_square id = topsquare></div>",null,encoding,word_square,,,1,topsquare,32,true,,,BRACELET,0,,,
html-keyboard-response,162,277668,186.5,"<div style=""font-size:42px;"">BRACELET</div>",32,,word,BRACELET,,,,,,,,,,,,
html-keyboard-response,163,279180,null,"",null,,word,BRACELET,,,,,,,,,,,,
html-keyboard-response,164,279382,null,"<div style=""font-size:42px;"">PORTRAIT</div><img id = ""stim"" ><div class = green_square id = bottomsquare></div>",null,encoding,word_square,,,0,bottomsquare,none,true,,,PORTRAIT,0,,,
html-keyboard-response,165,279693,null,"<div style=""font-size:42px;"">PORTRAIT</div>",null,,word,PORTRAIT,,,,,,,,,,,,
html-keyboard-response,166,281206,null,"",null,,word,PORTRAIT,,,,,,,,,,,,
html-keyboard-response,167,281408,null,"<div style=""font-size:42px;"">LUMBER</div><img id = ""stim"" ><div class = red_square id = bottomsquare></div>",null,encoding,word_square,,,1,bottomsquare,32,true,,,LUMBER,0,,,
html-keyboard-response,168,281719,144.80000019073486,"<div style=""font-size:42px;"">LUMBER</div>",32,,word,LUMBER,,,,,,,,,,,,
html-keyboard-response,169,283230,null,"",null,,word,LUMBER,,,,,,,,,,,,
html-keyboard-response,170,283432,null,"<div style=""font-size:42px;"">RODENT</div><img id = ""stim"" ><div class = green_square id = topsquare></div>",null,encoding,word_square,,,0,topsquare,none,true,,,RODENT,0,,,
html-keyboard-response,171,283741,null,"<div style=""font-size:42px;"">RODENT</div>",null,,word,RODENT,,,,,,,,,,,,
html-keyboard-response,172,285248,null,"",null,,word,RODENT,,,,,,,,,,,,
html-keyboard-response,173,285450,null,"<div style=""font-size:42px;"">POSSUM</div><img id = ""stim"" ><div class = red_square id = topsquare></div>",null,encoding,word_square,,,1,topsquare,32,true,,,POSSUM,0,,,
html-keyboard-response,174,285752,296.80000019073486,"<div style=""font-size:42px;"">POSSUM</div>",32,,word,POSSUM,,,,,,,,,,,,
html-keyboard-response,175,287259,null,"",null,,word,POSSUM,,,,,,,,,,,,
html-keyboard-response,176,287462,null,"<div style=""font-size:42px;"">MOTHER</div><img id = ""stim"" ><div class = red_square id = bottomsquare></div>",null,encoding,word_square,,,1,bottomsquare,32,true,,,MOTHER,0,,,
html-keyboard-response,177,287772,182.19999980926514,"<div style=""font-size:42px;"">MOTHER</div>",32,,word,MOTHER,,,,,,,,,,,,
html-keyboard-response,178,289280,null,"",null,,word,MOTHER,,,,,,,,,,,,
html-keyboard-response,179,289497,null,"<div style=""font-size:42px;"">SPONGE</div><img id = ""stim"" ><div class = green_square id = bottomsquare></div>",null,encoding,word_square,,,0,bottomsquare,none,true,,,SPONGE,0,,,
html-keyboard-response,180,289811,null,"<div style=""font-size:42px;"">SPONGE</div>",null,,word,SPONGE,,,,,,,,,,,,
html-keyboard-response,181,291316,null,"",null,,word,SPONGE,,,,,,,,,,,,
html-keyboard-response,182,291532,null,"<div style=""font-size:42px;"">RIVER</div><img id = ""stim"" ><div class = green_square id = topsquare></div>",null,encoding,word_square,,,0,topsquare,none,true,,,RIVER,0,,,
html-keyboard-response,183,291845,null,"<div style=""font-size:42px;"">RIVER</div>",null,,word,RIVER,,,,,,,,,,,,
html-keyboard-response,184,293353,null,"",null,,word,RIVER,,,,,,,,,,,,
html-keyboard-response,185,293556,null,"<div style=""font-size:42px;"">DRAWING</div><img id = ""stim"" ><div class = red_square id = topsquare></div>",null,encoding,word_square,,,1,topsquare,32,true,,,DRAWING,0,,,
html-keyboard-response,186,293865,139.09999990463257,"<div style=""font-size:42px;"">DRAWING</div>",32,,word,DRAWING,,,,,,,,,,,,
html-keyboard-response,187,295377,null,"",null,,word,DRAWING,,,,,,,,,,,,
html-keyboard-response,188,295581,null,"<div style=""font-size:42px;"">COMPASS</div><img id = ""stim"" ><div class = red_square id = bottomsquare></div>",null,encoding,word_square,,,1,bottomsquare,32,true,,,COMPASS,0,,,
html-keyboard-response,189,295889,240.40000009536743,"<div style=""font-size:42px;"">COMPASS</div>",32,,word,COMPASS,,,,,,,,,,,,
html-keyboard-response,190,297401,null,"",null,,word,COMPASS,,,,,,,,,,,,
html-keyboard-response,191,297605,null,"<div style=""font-size:42px;"">THICKET</div><img id = ""stim"" ><div class = green_square id = bottomsquare></div>",null,encoding,word_square,,,0,bottomsquare,none,true,,,THICKET,0,,,
html-keyboard-response,192,297915,null,"<div style=""font-size:42px;"">THICKET</div>",null,,word,THICKET,,,,,,,,,,,,
html-keyboard-response,193,299420,null,"",null,,word,THICKET,,,,,,,,,,,,
html-keyboard-response,194,299626,null,"<div style=""font-size:42px;"">PANTS</div><img id = ""stim"" ><div class = green_square id = topsquare></div>",null,encoding,word_square,,,0,topsquare,none,true,,,PANTS,0,,,
html-keyboard-response,195,299935,null,"<div style=""font-size:42px;"">PANTS</div>",null,,word,PANTS,,,,,,,,,,,,
html-keyboard-response,196,301444,null,"",null,,word,PANTS,,,,,,,,,,,,
html-keyboard-response,197,301646,null,"<div style=""font-size:42px;"">LACE</div><img id = ""stim"" ><div class = red_square id = topsquare></div>",null,encoding,word_square,,,1,topsquare,32,true,,,LACE,0,,,
html-keyboard-response,198,301961,170.10000014305115,"<div style=""font-size:42px;"">LACE</div>",32,,word,LACE,,,,,,,,,,,,
html-keyboard-response,199,303474,null,"",null,,word,LACE,,,,,,,,,,,,
html-keyboard-response,200,303676,null,"<div style=""font-size:42px;"">FLASK</div><img id = ""stim"" ><div class = red_square id = bottomsquare></div>",null,encoding,word_square,,,1,bottomsquare,32,true,,,FLASK,0,,,
html-keyboard-response,201,303978,208.40000009536743,"<div style=""font-size:42px;"">FLASK</div>",32,,word,FLASK,,,,,,,,,,,,
html-keyboard-response,202,305492,null,"",null,,word,FLASK,,,,,,,,,,,,
html-keyboard-response,203,305709,null,"<div style=""font-size:42px;"">PIGEON</div><img id = ""stim"" ><div class = green_square id = bottomsquare></div>",null,encoding,word_square,,,0,bottomsquare,none,true,,,PIGEON,0,,,
html-keyboard-response,204,306020,null,"<div style=""font-size:42px;"">PIGEON</div>",null,,word,PIGEON,,,,,,,,,,,,
html-keyboard-response,205,307530,null,"",null,,word,PIGEON,,,,,,,,,,,,
html-keyboard-response,206,307747,null,"<div style=""font-size:42px;"">PERCH</div><img id = ""stim"" ><div class = green_square id = topsquare></div>",null,encoding,word_square,,,0,topsquare,none,true,,,PERCH,0,,,
html-keyboard-response,207,308060,null,"<div style=""font-size:42px;"">PERCH</div>",null,,word,PERCH,,,,,,,,,,,,
html-keyboard-response,208,309565,null,"",null,,word,PERCH,,,,,,,,,,,,
call-function,209,309566,,"",,,,,,,,,,,,,,,,
html-keyboard-response,210,309667,null,"",null,,,,,,,,,,,,,,,
math-period,211,311489,3354.899999856949,"",,,,,,,,,,,3,,,,,
html-keyboard-response,212,311590,null,"",null,,,,,,,,,,,,,,,
math-period,213,313139,2422.5999999046326,"",,,,,,,,,,,3,,,,,
html-keyboard-response,214,313252,null,"",null,,,,,,,,,,,,,,,
math-period,215,314173,1569.0999999046326,"",,,,,,,,,,,3,,,,,
html-keyboard-response,216,314274,null,"",null,,,,,,,,,,,,,,,
math-period,217,316014,3261.9000000953674,"",,,,,,,,,,,2,,,,,
html-keyboard-response,218,316129,null,"",null,,,,,,,,,,,,,,,
math-period,219,317394,2182.0999999046326,"",,,,,,,,,,,6,,,,,
html-keyboard-response,220,317501,null,"",null,,,,,,,,,,,,,,,
math-period,221,319246,3256.7000002861023,"",,,,,,,,,,,1,,,,,
html-keyboard-response,222,319355,null,"",null,,,,,,,,,,,,,,,
math-period,223,322823,6718.299999713898,"",,,,,,,,,,,2,,,,,
html-keyboard-response,224,322936,null,"",null,,,,,,,,,,,,,,,
math-period,225,323886,1679.8000001907349,"",,,,,,,,,,,3,,,,,
html-keyboard-response,226,323999,null,"",null,,,,,,,,,,,,,,,
math-period,227,325020,1894.6999998092651,"",,,,,,,,,,,4,,,,,
html-keyboard-response,228,325130,null,"",null,,,,,,,,,,,,,,,
math-period,229,325996,1557.5000002384186,"",,,,,,,,,,,3,,,,,
html-keyboard-response,230,326112,null,"",null,,,,,,,,,,,,,,,
math-period,231,327607,2726.6000003814697,"",,,,,,,,,,,4,,,,,
html-keyboard-response,232,327708,null,"",null,,,,,,,,,,,,,,,
math-period,233,328641,1647.7000002861023,"",,,,,,,,,,,3,,,,,
html-keyboard-response,234,328748,null,"",null,,,,,,,,,,,,,,,
math-period,235,329691,1587.8000001907349,"",,,,,,,,,,,3,,,,,
html-keyboard-response,236,329804,null,"",null,,,,,,,,,,,,,,,
math-period,237,330682,1551.5,"",,,,,,,,,,,3,,,,,
html-keyboard-response,238,330784,null,"",null,,,,,,,,,,,,,,,
math-period,239,332910,6901.200000047684,"",,,,,,,,,,,1,,,,,
html-keyboard-response,240,333014,null,"",null,,,,,,,,,,,,,,,
math-period,241,333572,null,"",,,,,,,,,,,,,,,,
html-keyboard-response,242,334586,null,"Recall Period!",null,,,,,,,,,,,,,,,
call-function,243,334587,,"",,,,,,,,,,,,,,,,
html-keyboard-response,244,334695,null,"",null,,,,,,,,,,,,,,,
recall-period,245,341563,58380.2000002861,"",,,,,,,,,,,pigeon,,,,,
html-keyboard-response,246,341668,null,"",null,,,,,,,,,,,,,,,
recall-period,247,344320,13126.600000143051,"",,,,,,,,,,,possum,,,,,
html-keyboard-response,248,344431,null,"",null,,,,,,,,,,,,,,,
recall-period,249,347928,20481.799999952316,"",,,,,,,,,,,mother,,,,,
html-keyboard-response,250,348041,null,"",null,,,,,,,,,,,,,,,
recall-period,251,361639,99792.99999952316,"",,,,,,,,,,,thicket,,,,,
html-keyboard-response,252,361751,null,"",null,,,,,,,,,,,,,,,
recall-period,253,363910,8157.200000762939,"",,,,,,,,,,,river,,,,,
html-keyboard-response,254,364020,null,"",null,,,,,,,,,,,,,,,
recall-period,255,377071,95820.9000005722,"",,,,,,,,,,,drawing,,,,,
html-keyboard-response,256,377173,null,"",null,,,,,,,,,,,,,,,
recall-period,257,409591,null,"",,,,,,,,,,,,,,,,
html-keyboard-response,258,410103,null,"Time's Up!",null,,,,,,,,,,,,,,,
html-keyboard-response,259,413409,3304.7000000476837,"<p> Good job! You have responded correctly to 100% of the trials. </p>
                      <p>Be sure to only press the spacebar if you see a red square, and please keep your accuracy above 80%.</p>
                      <p> Press any key to continue the experiment. </p>",32,,,,,,,,,,,,,,,
html-keyboard-response,260,413957,547.0999999046326,"<div style=""font-size:48px;"">Press any key to begin list 2 of 16 </div>",32,,,,,,,,,,,,,,,
html-keyboard-response,261,416484,null,"<div style=""font-size:60px;"">+</div>",null,,,,,,,,,,,,,,,
html-keyboard-response,262,416697,null,"<div style=""font-size:42px;"">BALLOON</div><img id = ""stim"" ><div class = green_square id = topsquare></div>",null,encoding,word_square,,,0,topsquare,none,true,,,BALLOON,1,,,
html-keyboard-response,263,417004,null,"<div style=""font-size:42px;"">BALLOON</div>",null,,word,BALLOON,,,,,,,,,,,,
html-keyboard-response,264,418510,null,"",null,,word,BALLOON,,,,,,,,,,,,
html-keyboard-response,265,418713,null,"<div style=""font-size:42px;"">ROD</div><img id = ""stim"" ><div class = green_square id = bottomsquare></div>",null,encoding,word_square,,,0,bottomsquare,none,true,,,ROD,1,,,
html-keyboard-response,266,419026,null,"<div style=""font-size:42px;"">ROD</div>",null,,word,ROD,,,,,,,,,,,,
html-keyboard-response,267,420536,null,"",null,,word,ROD,,,,,,,,,,,,
html-keyboard-response,268,420752,null,"<div style=""font-size:42px;"">HAND</div><img id = ""stim"" ><div class = red_square id = bottomsquare></div>",null,encoding,word_square,,,1,bottomsquare,32,true,,,HAND,1,,,
html-keyboard-response,269,421062,184,"<div style=""font-size:42px;"">HAND</div>",32,,word,HAND,,,,,,,,,,,,
html-keyboard-response,270,422570,null,"",null,,word,HAND,,,,,,,,,,,,
html-keyboard-response,271,422773,null,"<div style=""font-size:42px;"">JUNGLE</div><img id = ""stim"" ><div class = red_square id = topsquare></div>",null,encoding,word_square,,,1,topsquare,32,true,,,JUNGLE,1,,,
html-keyboard-response,272,423080,162.39999985694885,"<div style=""font-size:42px;"">JUNGLE</div>",32,,word,JUNGLE,,,,,,,,,,,,
html-keyboard-response,273,424586,null,"",null,,word,JUNGLE,,,,,,,,,,,,
html-keyboard-response,274,424787,null,"<div style=""font-size:42px;"">PRIMATE</div><img id = ""stim"" ><div class = green_square id = topsquare></div>",null,encoding,word_square,,,0,topsquare,none,true,,,PRIMATE,1,,,
html-keyboard-response,275,425098,null,"<div style=""font-size:42px;"">PRIMATE</div>",null,,word,PRIMATE,,,,,,,,,,,,
html-keyboard-response,276,426600,null,"",null,,word,PRIMATE,,,,,,,,,,,,
html-keyboard-response,277,426816,null,"<div style=""font-size:42px;"">SODA</div><img id = ""stim"" ><div class = green_square id = bottomsquare></div>",null,encoding,word_square,,,0,bottomsquare,none,true,,,SODA,1,,,
html-keyboard-response,278,427126,null,"<div style=""font-size:42px;"">SODA</div>",null,,word,SODA,,,,,,,,,,,,
html-keyboard-response,279,428636,null,"",null,,word,SODA,,,,,,,,,,,,
html-keyboard-response,280,428852,null,"<div style=""font-size:42px;"">SIRLOIN</div><img id = ""stim"" ><div class = red_square id = bottomsquare></div>",null,encoding,word_square,,,1,bottomsquare,32,true,,,SIRLOIN,1,,,
html-keyboard-response,281,429154,215.5,"<div style=""font-size:42px;"">SIRLOIN</div>",32,,word,SIRLOIN,,,,,,,,,,,,
html-keyboard-response,282,430670,null,"",null,,word,SIRLOIN,,,,,,,,,,,,
html-keyboard-response,283,430885,null,"<div style=""font-size:42px;"">GLASSES</div><img id = ""stim"" ><div class = red_square id = topsquare></div>",null,encoding,word_square,,,1,topsquare,32,true,,,GLASSES,1,,,
html-keyboard-response,284,431194,null,"<div style=""font-size:42px;"">GLASSES</div>",null,,word,GLASSES,,,,,,,,,,,,
html-keyboard-response,285,432707,2.200000047683716,"",32,,word,GLASSES,,,,,,,,,,,,
html-keyboard-response,286,432909,null,"<div style=""font-size:42px;"">ADULT</div><img id = ""stim"" ><div class = green_square id = topsquare></div>",null,encoding,word_square,,,0,topsquare,none,true,,,ADULT,1,,,
html-keyboard-response,287,433221,null,"<div style=""font-size:42px;"">ADULT</div>",null,,word,ADULT,,,,,,,,,,,,
html-keyboard-response,288,434726,null,"",null,,word,ADULT,,,,,,,,,,,,
html-keyboard-response,289,434928,null,"<div style=""font-size:42px;"">SWATTER</div><img id = ""stim"" ><div class = green_square id = bottomsquare></div>",null,encoding,word_square,,,0,bottomsquare,none,true,,,SWATTER,1,,,
html-keyboard-response,290,435240,null,"<div style=""font-size:42px;"">SWATTER</div>",null,,word,SWATTER,,,,,,,,,,,,
html-keyboard-response,291,436742,null,"",null,,word,SWATTER,,,,,,,,,,,,
html-keyboard-response,292,436945,null,"<div style=""font-size:42px;"">ARM</div><img id = ""stim"" ><div class = red_square id = bottomsquare></div>",null,encoding,word_square,,,1,bottomsquare,32,true,,,ARM,1,,,
html-keyboard-response,293,437256,168.5,"<div style=""font-size:42px;"">ARM</div>",32,,word,ARM,,,,,,,,,,,,
html-keyboard-response,294,438766,null,"",null,,word,ARM,,,,,,,,,,,,
html-keyboard-response,295,438968,null,"<div style=""font-size:42px;"">COUCH</div><img id = ""stim"" ><div class = red_square id = topsquare></div>",null,encoding,word_square,,,1,topsquare,32,true,,,COUCH,1,,,
html-keyboard-response,296,439270,231.40000009536743,"<div style=""font-size:42px;"">COUCH</div>",32,,word,COUCH,,,,,,,,,,,,
html-keyboard-response,297,440781,null,"",null,,word,COUCH,,,,,,,,,,,,
html-keyboard-response,298,440996,null,"<div style=""font-size:42px;"">GODDESS</div><img id = ""stim"" ><div class = green_square id = topsquare></div>",null,encoding,word_square,,,0,topsquare,none,true,,,GODDESS,1,,,
html-keyboard-response,299,441304,null,"<div style=""font-size:42px;"">GODDESS</div>",null,,word,GODDESS,,,,,,,,,,,,
html-keyboard-response,300,442810,null,"",null,,word,GODDESS,,,,,,,,,,,,
html-keyboard-response,301,443024,null,"<div style=""font-size:42px;"">CREATURE</div><img id = ""stim"" ><div class = red_square id = bottomsquare></div>",null,encoding,word_square,,,1,bottomsquare,32,true,,,CREATURE,1,,,
html-keyboard-response,302,443333,136.59999990463257,"<div style=""font-size:42px;"">CREATURE</div>",32,,word,CREATURE,,,,,,,,,,,,
html-keyboard-response,303,444845,null,"",null,,word,CREATURE,,,,,,,,,,,,
html-keyboard-response,304,445060,null,"<div style=""font-size:42px;"">PUDDLE</div><img id = ""stim"" ><div class = green_square id = bottomsquare></div>",null,encoding,word_square,,,0,bottomsquare,none,true,,,PUDDLE,1,,,
html-keyboard-response,305,445375,null,"<div style=""font-size:42px;"">PUDDLE</div>",null,,word,PUDDLE,,,,,,,,,,,,
html-keyboard-response,306,446890,null,"",null,,word,PUDDLE,,,,,,,,,,,,
html-keyboard-response,307,447092,null,"<div style=""font-size:42px;"">SLIDE</div><img id = ""stim"" ><div class = red_square id = topsquare></div>",null,encoding,word_square,,,1,topsquare,32,true,,,SLIDE,1,,,
html-keyboard-response,308,447393,211.09999990463257,"<div style=""font-size:42px;"">SLIDE</div>",32,,word,SLIDE,,,,,,,,,,,,
html-keyboard-response,309,448904,null,"",null,,word,SLIDE,,,,,,,,,,,,
call-function,310,448905,,"",,,,,,,,,,,,,,,,
html-keyboard-response,311,449006,null,"",null,,,,,,,,,,,,,,,
math-period,312,450580,2913.7999997138977,"",,,,,,,,,,,6,,,,,
html-keyboard-response,313,450681,null,"",null,,,,,,,,,,,,,,,
math-period,314,452331,3153.0999999046326,"",,,,,,,,,,,1,,,,,
html-keyboard-response,315,452435,null,"",null,,,,,,,,,,,,,,,
math-period,316,453624,2145.0999999046326,"",,,,,,,,,,,4,,,,,
html-keyboard-response,317,453726,null,"",null,,,,,,,,,,,,,,,
math-period,318,455234,2798.4999997615814,"",,,,,,,,,,,1,,,,,
html-keyboard-response,319,455345,null,"",null,,,,,,,,,,,,,,,
math-period,320,456197,1498.5,"",,,,,,,,,,,4,,,,,
html-keyboard-response,321,456308,null,"",null,,,,,,,,,,,,,,,
math-period,322,457174,1556.9999997615814,"",,,,,,,,,,,4,,,,,
html-keyboard-response,323,457281,null,"",null,,,,,,,,,,,,,,,
math-period,324,458798,2787.4999997615814,"",,,,,,,,,,,2,,,,,
html-keyboard-response,325,458910,null,"",null,,,,,,,,,,,,,,,
math-period,326,459731,1395.5999999046326,"",,,,,,,,,,,2,,,,,
html-keyboard-response,327,459840,null,"",null,,,,,,,,,,,,,,,
math-period,328,461394,2878.100000143051,"",,,,,,,,,,,4,,,,,
html-keyboard-response,329,461496,null,"",null,,,,,,,,,,,,,,,
math-period,330,462905,2571.4999997615814,"",,,,,,,,,,,2,,,,,
html-keyboard-response,331,463012,null,"",null,,,,,,,,,,,,,,,
math-period,332,464400,2527.4000000953674,"",,,,,,,,,,,1,,,,,
html-keyboard-response,333,464515,null,"",null,,,,,,,,,,,,,,,
math-period,334,466252,3168.800000190735,"",,,,,,,,,,,2,,,,,
html-keyboard-response,335,466353,null,"",null,,,,,,,,,,,,,,,
math-period,336,467617,2281.300000190735,"",,,,,,,,,,,5,,,,,
html-keyboard-response,337,467732,null,"",null,,,,,,,,,,,,,,,
math-period,338,468997,2283.4000000953674,"",,,,,,,,,,,4,,,,,
html-keyboard-response,339,469097,null,"",null,,,,,,,,,,,,,,,
math-period,340,471196,3948.899999856949,"",,,,,,,,,,,1,,,,,
html-keyboard-response,341,471301,null,"",null,,,,,,,,,,,,,,,
math-period,342,472273,1739.5,"",,,,,,,,,,,4,,,,,
html-keyboard-response,343,472383,null,"",null,,,,,,,,,,,,,,,
math-period,344,472910,null,"",,,,,,,,,,,,,,,,
html-keyboard-response,345,473917,null,"Recall Period!",null,,,,,,,,,,,,,,,
call-function,346,473917,,"",,,,,,,,,,,,,,,,
html-keyboard-response,347,474025,null,"",null,,,,,,,,,,,,,,,
recall-period,348,478311,19702.400000095367,"",,,,,,,,,,,puddle,,,,,
html-keyboard-response,349,478412,null,"",null,,,,,,,,,,,,,,,
recall-period,350,491847,51962.599999666214,"",,,,,,,,,,,rod,,,,,
html-keyboard-response,351,491956,null,"",null,,,,,,,,,,,,,,,
recall-period,352,513766,148263.30000066757,"",,,,,,,,,,,father,,,,,
html-keyboard-response,353,513876,null,"",null,,,,,,,,,,,,,,,
recall-period,354,548928,null,"",,,,,,,,,,,,,,,,
html-keyboard-response,355,549430,null,"Time's Up!",null,,,,,,,,,,,,,,,
html-keyboard-response,356,550787,1355.8999998569489,"<p> Good job! You have responded correctly to 100% of the trials. </p>
                      <p>Be sure to only press the spacebar if you see a red square, and please keep your accuracy above 80%.</p>
                      <p> Press any key to continue the experiment. </p>",32,,,,,,,,,,,,,,,
html-keyboard-response,357,553211,2424.0999999046326,"<div style=""font-size:48px;"">Press any key to begin list 3 of 16 </div>",32,,,,,,,,,,,,,,,
html-keyboard-response,358,555726,null,"<div style=""font-size:60px;"">+</div>",null,,,,,,,,,,,,,,,
html-keyboard-response,359,555928,null,"<div style=""font-size:42px;"">PUPPY</div><img id = ""stim"" ><div class = green_square id = bottomsquare></div>",null,encoding,word_square,,,0,bottomsquare,none,true,,,PUPPY,2,,,
html-keyboard-response,360,556241,null,"<div style=""font-size:42px;"">PUPPY</div>",null,,word,PUPPY,,,,,,,,,,,,
html-keyboard-response,361,557751,null,"",null,,word,PUPPY,,,,,,,,,,,,
html-keyboard-response,362,557953,null,"<div style=""font-size:42px;"">CATCHER</div><img id = ""stim"" ><div class = red_square id = topsquare></div>",null,encoding,word_square,,,1,topsquare,32,true,,,CATCHER,2,,,
html-keyboard-response,363,558254,288.2000000476837,"<div style=""font-size:42px;"">CATCHER</div>",32,,word,CATCHER,,,,,,,,,,,,
html-keyboard-response,364,559757,null,"",null,,word,CATCHER,,,,,,,,,,,,
html-keyboard-response,365,559961,null,"<div style=""font-size:42px;"">KNUCKLE</div><img id = ""stim"" ><div class = green_square id = topsquare></div>",null,encoding,word_square,,,0,topsquare,none,true,,,KNUCKLE,2,,,
html-keyboard-response,366,560272,null,"<div style=""font-size:42px;"">KNUCKLE</div>",null,,word,KNUCKLE,,,,,,,,,,,,
html-keyboard-response,367,561785,null,"",null,,word,KNUCKLE,,,,,,,,,,,,
html-keyboard-response,368,561989,null,"<div style=""font-size:42px;"">SENATE</div><img id = ""stim"" ><div class = red_square id = bottomsquare></div>",null,encoding,word_square,,,1,bottomsquare,32,true,,,SENATE,2,,,
html-keyboard-response,369,562292,null,"<div style=""font-size:42px;"">SENATE</div>",null,,word,SENATE,,,,,,,,,,,,
html-keyboard-response,370,563806,19.799999952316284,"",32,,word,SENATE,,,,,,,,,,,,
html-keyboard-response,371,564011,null,"<div style=""font-size:42px;"">EYELASH</div><img id = ""stim"" ><div class = green_square id = bottomsquare></div>",null,encoding,word_square,,,0,bottomsquare,none,true,,,EYELASH,2,,,
html-keyboard-response,372,564319,null,"<div style=""font-size:42px;"">EYELASH</div>",null,,word,EYELASH,,,,,,,,,,,,
html-keyboard-response,373,565829,null,"",null,,word,EYELASH,,,,,,,,,,,,
html-keyboard-response,374,566035,null,"<div style=""font-size:42px;"">SWAMP</div><img id = ""stim"" ><div class = green_square id = topsquare></div>",null,encoding,word_square,,,0,topsquare,none,true,,,SWAMP,2,,,
html-keyboard-response,375,566347,null,"<div style=""font-size:42px;"">SWAMP</div>",null,,word,SWAMP,,,,,,,,,,,,
html-keyboard-response,376,567856,null,"",null,,word,SWAMP,,,,,,,,,,,,
html-keyboard-response,377,568063,null,"<div style=""font-size:42px;"">BLOCKADE</div><img id = ""stim"" ><div class = red_square id = topsquare></div>",null,encoding,word_square,,,1,topsquare,32,true,,,BLOCKADE,2,,,
html-keyboard-response,378,568373,180.59999990463257,"<div style=""font-size:42px;"">BLOCKADE</div>",32,,word,BLOCKADE,,,,,,,,,,,,
html-keyboard-response,379,569885,null,"",null,,word,BLOCKADE,,,,,,,,,,,,
html-keyboard-response,380,570089,null,"<div style=""font-size:42px;"">CRICKET</div><img id = ""stim"" ><div class = red_square id = bottomsquare></div>",null,encoding,word_square,,,1,bottomsquare,32,true,,,CRICKET,2,,,
html-keyboard-response,381,570391,242.40000009536743,"<div style=""font-size:42px;"">CRICKET</div>",32,,word,CRICKET,,,,,,,,,,,,
html-keyboard-response,382,571899,null,"",null,,word,CRICKET,,,,,,,,,,,,
html-keyboard-response,383,572102,null,"<div style=""font-size:42px;"">BUTLER</div><img id = ""stim"" ><div class = green_square id = bottomsquare></div>",null,encoding,word_square,,,0,bottomsquare,none,true,,,BUTLER,2,,,
html-keyboard-response,384,572419,null,"<div style=""font-size:42px;"">BUTLER</div>",null,,word,BUTLER,,,,,,,,,,,,
html-keyboard-response,385,573931,null,"",null,,word,BUTLER,,,,,,,,,,,,
html-keyboard-response,386,574135,null,"<div style=""font-size:42px;"">PROTON</div><img id = ""stim"" ><div class = green_square id = topsquare></div>",null,encoding,word_square,,,0,topsquare,none,true,,,PROTON,2,,,
html-keyboard-response,387,574446,null,"<div style=""font-size:42px;"">PROTON</div>",null,,word,PROTON,,,,,,,,,,,,
html-keyboard-response,388,575958,null,"",null,,word,PROTON,,,,,,,,,,,,
html-keyboard-response,389,576162,null,"<div style=""font-size:42px;"">ACTOR</div><img id = ""stim"" ><div class = red_square id = topsquare></div>",null,encoding,word_square,,,1,topsquare,32,true,,,ACTOR,2,,,
html-keyboard-response,390,576465,128.79999995231628,"<div style=""font-size:42px;"">ACTOR</div>",32,,word,ACTOR,,,,,,,,,,,,
html-keyboard-response,391,577966,null,"",null,,word,ACTOR,,,,,,,,,,,,
html-keyboard-response,392,578168,null,"<div style=""font-size:42px;"">SAPPHIRE</div><img id = ""stim"" ><div class = red_square id = bottomsquare></div>",null,encoding,word_square,,,1,bottomsquare,32,true,,,SAPPHIRE,2,,,
html-keyboard-response,393,578470,263.40000009536743,"<div style=""font-size:42px;"">SAPPHIRE</div>",32,,word,SAPPHIRE,,,,,,,,,,,,
html-keyboard-response,394,579979,null,"",null,,word,SAPPHIRE,,,,,,,,,,,,
html-keyboard-response,395,580180,null,"<div style=""font-size:42px;"">STAR</div><img id = ""stim"" ><div class = green_square id = bottomsquare></div>",null,encoding,word_square,,,0,bottomsquare,none,true,,,STAR,2,,,
html-keyboard-response,396,580489,null,"<div style=""font-size:42px;"">STAR</div>",null,,word,STAR,,,,,,,,,,,,
html-keyboard-response,397,582000,null,"",null,,word,STAR,,,,,,,,,,,,
html-keyboard-response,398,582215,null,"<div style=""font-size:42px;"">COMET</div><img id = ""stim"" ><div class = green_square id = topsquare></div>",null,encoding,word_square,,,0,topsquare,none,true,,,COMET,2,,,
html-keyboard-response,399,582525,null,"<div style=""font-size:42px;"">COMET</div>",null,,word,COMET,,,,,,,,,,,,
html-keyboard-response,400,584040,null,"",null,,word,COMET,,,,,,,,,,,,
html-keyboard-response,401,584256,null,"<div style=""font-size:42px;"">BRAKE</div><img id = ""stim"" ><div class = red_square id = topsquare></div>",null,encoding,word_square,,,1,topsquare,32,true,,,BRAKE,2,,,
html-keyboard-response,402,584568,126.20000004768372,"<div style=""font-size:42px;"">BRAKE</div>",32,,word,BRAKE,,,,,,,,,,,,
html-keyboard-response,403,586071,null,"",null,,word,BRAKE,,,,,,,,,,,,
html-keyboard-response,404,586274,null,"<div style=""font-size:42px;"">TURNIP</div><img id = ""stim"" ><div class = red_square id = bottomsquare></div>",null,encoding,word_square,,,1,bottomsquare,32,true,,,TURNIP,2,,,
html-keyboard-response,405,586585,221.29999995231628,"<div style=""font-size:42px;"">TURNIP</div>",32,,word,TURNIP,,,,,,,,,,,,
html-keyboard-response,406,588094,null,"",null,,word,TURNIP,,,,,,,,,,,,
call-function,407,588095,,"",,,,,,,,,,,,,,,,
html-keyboard-response,408,588197,null,"",null,,,,,,,,,,,,,,,
math-period,409,589776,2942,"",,,,,,,,,,,3,,,,,
html-keyboard-response,410,589885,null,"",null,,,,,,,,,,,,,,,
math-period,411,591284,2592.699999809265,"",,,,,,,,,,,2,,,,,
html-keyboard-response,412,591394,null,"",null,,,,,,,,,,,,,,,
math-period,413,592433,1904.2999997138977,"",,,,,,,,,,,5,,,,,
html-keyboard-response,414,592544,null,"",null,,,,,,,,,,,,,,,
math-period,415,593770,2277.9000000953674,"",,,,,,,,,,,2,,,,,
html-keyboard-response,416,593884,null,"",null,,,,,,,,,,,,,,,
math-period,417,594834,1723.9000000953674,"",,,,,,,,,,,4,,,,,
html-keyboard-response,418,594939,null,"",null,,,,,,,,,,,,,,,
math-period,419,596170,2186.5,"",,,,,,,,,,,6,,,,,
html-keyboard-response,420,596275,null,"",null,,,,,,,,,,,,,,,
math-period,421,597940,3054.9999997615814,"",,,,,,,,,,,2,,,,,
html-keyboard-response,422,598051,null,"",null,,,,,,,,,,,,,,,
math-period,423,599678,2904.5999999046326,"",,,,,,,,,,,2,,,,,
html-keyboard-response,424,599778,null,"",null,,,,,,,,,,,,,,,
math-period,425,601131,1351.1999998092651,"",,,,,,,,,,,,,,,,
html-keyboard-response,426,601246,null,"",null,,,,,,,,,,,,,,,
math-period,427,602482,2282.7999999523163,"",,,,,,,,,,,3,,,,,
html-keyboard-response,428,602595,null,"",null,,,,,,,,,,,,,,,
math-period,429,603661,1897.6999998092651,"",,,,,,,,,,,2,,,,,
html-keyboard-response,430,603763,null,"",null,,,,,,,,,,,,,,,
math-period,431,604781,1789,"",,,,,,,,,,,3,,,,,
html-keyboard-response,432,604885,null,"",null,,,,,,,,,,,,,,,
math-period,433,607293,4571.999999761581,"",,,,,,,,,,,2,,,,,
html-keyboard-response,434,607403,null,"",null,,,,,,,,,,,,,,,
math-period,435,608774,2479.7999997138977,"",,,,,,,,,,,6,,,,,
html-keyboard-response,436,608884,null,"",null,,,,,,,,,,,,,,,
math-period,437,609765,1601.5999999046326,"",,,,,,,,,,,3,,,,,
html-keyboard-response,438,609871,null,"",null,,,,,,,,,,,,,,,
math-period,439,611752,5611.900000095367,"",,,,,,,,,,,4,,,,,
html-keyboard-response,440,611852,null,"",null,,,,,,,,,,,,,,,
math-period,441,612104,null,"",,,,,,,,,,,,,,,,
html-keyboard-response,442,613112,null,"Recall Period!",null,,,,,,,,,,,,,,,
call-function,443,613113,,"",,,,,,,,,,,,,,,,
html-keyboard-response,444,613221,null,"",null,,,,,,,,,,,,,,,
recall-period,445,617312,19965.700000286102,"",,,,,,,,,,,butler,,,,,
html-keyboard-response,446,617425,null,"",null,,,,,,,,,,,,,,,
recall-period,447,619611,9473.499999523163,"",,,,,,,,,,,knuckle,,,,,
html-keyboard-response,448,619712,null,"",null,,,,,,,,,,,,,,,
recall-period,449,625516,27715.699999809265,"",,,,,,,,,,,swamp,,,,,
html-keyboard-response,450,625632,null,"",null,,,,,,,,,,,,,,,
recall-period,451,638288,69414.5999994278,"",,,,,,,,,,,puppy,,,,,
html-keyboard-response,452,638396,null,"",null,,,,,,,,,,,,,,,
recall-period,453,653566,115331.09999990463,"",,,,,,,,,,,eyelash,,,,,
html-keyboard-response,454,653678,null,"",null,,,,,,,,,,,,,,,
recall-period,455,683319,75369.2999997139,"",,,,,,,,,,,,,,,,
html-keyboard-response,456,683429,null,"",null,,,,,,,,,,,,,,,
recall-period,457,688113,null,"",,,,,,,,,,,,,,,,
html-keyboard-response,458,688616,null,"Time's Up!",null,,,,,,,,,,,,,,,
html-keyboard-response,459,694360,5743.400000095367,"<p> Good job! You have responded correctly to 100% of the trials. </p>
                      <p>Be sure to only press the spacebar if you see a red square, and please keep your accuracy above 80%.</p>
                      <p> Press any key to continue the experiment. </p>",32,,,,,,,,,,,,,,,
html-keyboard-response,460,696070,1708.0999999046326,"<div style=""font-size:48px;"">Press any key to begin list 4 of 16 </div>",32,,,,,,,,,,,,,,,
html-keyboard-response,461,698591,null,"<div style=""font-size:60px;"">+</div>",null,,,,,,,,,,,,,,,
html-keyboard-response,462,698795,null,"<div style=""font-size:42px;"">JEANS</div><img id = ""stim"" ><div class = red_square id = bottomsquare></div>",null,encoding,word_square,,,1,bottomsquare,32,true,,,JEANS,3,,,
html-keyboard-response,463,699107,178.5,"<div style=""font-size:42px;"">JEANS</div>",32,,word,JEANS,,,,,,,,,,,,
html-keyboard-response,464,700614,null,"",null,,word,JEANS,,,,,,,,,,,,
html-keyboard-response,465,700819,null,"<div style=""font-size:42px;"">COOKBOOK</div><img id = ""stim"" ><div class = red_square id = topsquare></div>",null,encoding,word_square,,,1,topsquare,32,true,,,COOKBOOK,3,,,
html-keyboard-response,466,701121,281.2000000476837,"<div style=""font-size:42px;"">COOKBOOK</div>",32,,word,COOKBOOK,,,,,,,,,,,,
html-keyboard-response,467,702636,null,"",null,,word,COOKBOOK,,,,,,,,,,,,
html-keyboard-response,468,702838,null,"<div style=""font-size:42px;"">SCULPTURE</div><img id = ""stim"" ><div class = green_square id = topsquare></div>",null,encoding,word_square,,,0,topsquare,none,true,,,SCULPTURE,3,,,
html-keyboard-response,469,703147,null,"<div style=""font-size:42px;"">SCULPTURE</div>",null,,word,SCULPTURE,,,,,,,,,,,,
html-keyboard-response,470,704654,null,"",null,,word,SCULPTURE,,,,,,,,,,,,
html-keyboard-response,471,704859,null,"<div style=""font-size:42px;"">PITCHFORK</div><img id = ""stim"" ><div class = green_square id = bottomsquare></div>",null,encoding,word_square,,,0,bottomsquare,none,true,,,PITCHFORK,3,,,
html-keyboard-response,472,705170,null,"<div style=""font-size:42px;"">PITCHFORK</div>",null,,word,PITCHFORK,,,,,,,,,,,,
html-keyboard-response,473,706675,null,"",null,,word,PITCHFORK,,,,,,,,,,,,
html-keyboard-response,474,706880,null,"<div style=""font-size:42px;"">HAWK</div><img id = ""stim"" ><div class = red_square id = bottomsquare></div>",null,encoding,word_square,,,1,bottomsquare,32,true,,,HAWK,3,,,
html-keyboard-response,475,707191,98.59999990463257,"<div style=""font-size:42px;"">HAWK</div>",32,,word,HAWK,,,,,,,,,,,,
html-keyboard-response,476,708695,null,"",null,,word,HAWK,,,,,,,,,,,,
html-keyboard-response,477,708897,null,"<div style=""font-size:42px;"">SOFTBALL</div><img id = ""stim"" ><div class = red_square id = topsquare></div>",null,encoding,word_square,,,1,topsquare,32,true,,,SOFTBALL,3,,,
html-keyboard-response,478,709198,265.2999999523163,"<div style=""font-size:42px;"">SOFTBALL</div>",32,,word,SOFTBALL,,,,,,,,,,,,
html-keyboard-response,479,710713,null,"",null,,word,SOFTBALL,,,,,,,,,,,,
html-keyboard-response,480,710915,null,"<div style=""font-size:42px;"">KLEENEX</div><img id = ""stim"" ><div class = green_square id = topsquare></div>",null,encoding,word_square,,,0,topsquare,none,true,,,KLEENEX,3,,,
html-keyboard-response,481,711227,null,"<div style=""font-size:42px;"">KLEENEX</div>",null,,word,KLEENEX,,,,,,,,,,,,
html-keyboard-response,482,712743,null,"",null,,word,KLEENEX,,,,,,,,,,,,
html-keyboard-response,483,712959,null,"<div style=""font-size:42px;"">POISON</div><img id = ""stim"" ><div class = green_square id = bottomsquare></div>",null,encoding,word_square,,,0,bottomsquare,none,true,,,POISON,3,,,
html-keyboard-response,484,713270,null,"<div style=""font-size:42px;"">POISON</div>",null,,word,POISON,,,,,,,,,,,,
html-keyboard-response,485,714780,null,"",null,,word,POISON,,,,,,,,,,,,
html-keyboard-response,486,714983,null,"<div style=""font-size:42px;"">RATTLE</div><img id = ""stim"" ><div class = red_square id = bottomsquare></div>",null,encoding,word_square,,,1,bottomsquare,32,true,,,RATTLE,3,,,
html-keyboard-response,487,715296,127.70000004768372,"<div style=""font-size:42px;"">RATTLE</div>",32,,word,RATTLE,,,,,,,,,,,,
html-keyboard-response,488,716807,null,"",null,,word,RATTLE,,,,,,,,,,,,
html-keyboard-response,489,717009,null,"<div style=""font-size:42px;"">CARTON</div><img id = ""stim"" ><div class = red_square id = topsquare></div>",null,encoding,word_square,,,1,topsquare,32,true,,,CARTON,3,,,
html-keyboard-response,490,717320,198.59999990463257,"<div style=""font-size:42px;"">CARTON</div>",32,,word,CARTON,,,,,,,,,,,,
html-keyboard-response,491,718835,null,"",null,,word,CARTON,,,,,,,,,,,,
html-keyboard-response,492,719037,null,"<div style=""font-size:42px;"">HAYSTACK</div><img id = ""stim"" ><div class = green_square id = topsquare></div>",null,encoding,word_square,,,0,topsquare,none,true,,,HAYSTACK,3,,,
html-keyboard-response,493,719349,null,"<div style=""font-size:42px;"">HAYSTACK</div>",null,,word,HAYSTACK,,,,,,,,,,,,
html-keyboard-response,494,720859,null,"",null,,word,HAYSTACK,,,,,,,,,,,,
html-keyboard-response,495,721062,null,"<div style=""font-size:42px;"">TEACHER</div><img id = ""stim"" ><div class = green_square id = bottomsquare></div>",null,encoding,word_square,,,0,bottomsquare,none,true,,,TEACHER,3,,,
html-keyboard-response,496,721372,null,"<div style=""font-size:42px;"">TEACHER</div>",null,,word,TEACHER,,,,,,,,,,,,
html-keyboard-response,497,722883,null,"",null,,word,TEACHER,,,,,,,,,,,,
html-keyboard-response,498,723101,null,"<div style=""font-size:42px;"">STUDENT</div><img id = ""stim"" ><div class = red_square id = bottomsquare></div>",null,encoding,word_square,,,1,bottomsquare,32,true,,,STUDENT,3,,,
html-keyboard-response,499,723413,171.79999995231628,"<div style=""font-size:42px;"">STUDENT</div>",32,,word,STUDENT,,,,,,,,,,,,
html-keyboard-response,500,724924,null,"",null,,word,STUDENT,,,,,,,,,,,,
html-keyboard-response,501,725127,null,"<div style=""font-size:42px;"">SERVER</div><img id = ""stim"" ><div class = green_square id = topsquare></div>",null,encoding,word_square,,,0,topsquare,none,true,,,SERVER,3,,,
html-keyboard-response,502,725444,null,"<div style=""font-size:42px;"">SERVER</div>",null,,word,SERVER,,,,,,,,,,,,
html-keyboard-response,503,726960,null,"",null,,word,SERVER,,,,,,,,,,,,
html-keyboard-response,504,727164,null,"<div style=""font-size:42px;"">MAJOR</div><img id = ""stim"" ><div class = red_square id = topsquare></div>",null,encoding,word_square,,,1,topsquare,32,true,,,MAJOR,3,,,
html-keyboard-response,505,727475,173.70000004768372,"<div style=""font-size:42px;"">MAJOR</div>",32,,word,MAJOR,,,,,,,,,,,,
html-keyboard-response,506,728986,null,"",null,,word,MAJOR,,,,,,,,,,,,
html-keyboard-response,507,729187,null,"<div style=""font-size:42px;"">SAND</div><img id = ""stim"" ><div class = green_square id = bottomsquare></div>",null,encoding,word_square,,,0,bottomsquare,none,true,,,SAND,3,,,
html-keyboard-response,508,729499,null,"<div style=""font-size:42px;"">SAND</div>",null,,word,SAND,,,,,,,,,,,,
html-keyboard-response,509,731006,null,"",null,,word,SAND,,,,,,,,,,,,
call-function,510,731006,,"",,,,,,,,,,,,,,,,
html-keyboard-response,511,731117,null,"",null,,,,,,,,,,,,,,,
math-period,512,734239,9805.300000190735,"",,,,,,,,,,,1,,,,,
html-keyboard-response,513,734344,null,"",null,,,,,,,,,,,,,,,
math-period,514,735187,1452.5,"",,,,,,,,,,,4,,,,,
html-keyboard-response,515,735288,null,"",null,,,,,,,,,,,,,,,
math-period,516,736308,1806.2999999523163,"",,,,,,,,,,,5,,,,,
html-keyboard-response,517,736411,null,"",null,,,,,,,,,,,,,,,
math-period,518,737429,1846,"",,,,,,,,,,,4,,,,,
html-keyboard-response,519,737544,null,"",null,,,,,,,,,,,,,,,
math-period,520,738534,1690.8999998569489,"",,,,,,,,,,,2,,,,,
html-keyboard-response,521,738648,null,"",null,,,,,,,,,,,,,,,
math-period,522,739395,1222.3999996185303,"",,,,,,,,,,,2,,,,,
html-keyboard-response,523,739501,null,"",null,,,,,,,,,,,,,,,
math-period,524,741136,2521.899999856949,"",,,,,,,,,,,3,,,,,
html-keyboard-response,525,741242,null,"",null,,,,,,,,,,,,,,,
math-period,526,745502,5445.200000047684,"",,,,,,,,,,,1,,,,,
html-keyboard-response,527,745609,null,"",null,,,,,,,,,,,,,,,
math-period,528,746680,1837.7000000476837,"",,,,,,,,,,,4,,,,,
html-keyboard-response,529,746788,null,"",null,,,,,,,,,,,,,,,
math-period,530,747959,1951.3999998569489,"",,,,,,,,,,,2,,,,,
html-keyboard-response,531,748068,null,"",null,,,,,,,,,,,,,,,
math-period,532,751003,5583.299999713898,"",,,,,,,,,,,1,,,,,
html-keyboard-response,533,751112,null,"",null,,,,,,,,,,,,,,,
math-period,534,752195,1951.2000000476837,"",,,,,,,,,,,2,,,,,
html-keyboard-response,535,752309,null,"",null,,,,,,,,,,,,,,,
math-period,536,754393,3896.5999999046326,"",,,,,,,,,,,0,,,,,
html-keyboard-response,537,754497,null,"",null,,,,,,,,,,,,,,,
math-period,538,755009,null,"",,,,,,,,,,,,,,,,
html-keyboard-response,539,756019,null,"Recall Period!",null,,,,,,,,,,,,,,,
call-function,540,756020,,"",,,,,,,,,,,,,,,,
html-keyboard-response,541,756130,null,"",null,,,,,,,,,,,,,,,
recall-period,542,764022,96639.09999990463,"",,,,,,,,,,,cookbook,,,,,
html-keyboard-response,543,764136,null,"",null,,,,,,,,,,,,,,,
recall-period,544,776679,170395.89999747276,"",,,,,,,,,,,ratle,,,,,
html-keyboard-response,545,776788,null,"",null,,,,,,,,,,,,,,,
recall-period,546,785088,52697.60000038147,"",,,,,,,,,,,carton,,,,,
html-keyboard-response,547,785195,null,"",null,,,,,,,,,,,,,,,
recall-period,548,790795,34645.300000190735,"",,,,,,,,,,,proton,,,,,
html-keyboard-response,549,790911,null,"",null,,,,,,,,,,,,,,,
recall-period,550,794746,20416,"",,,,,,,,,,,actor,,,,,
html-keyboard-response,551,794852,null,"",null,,,,,,,,,,,,,,,
recall-period,552,831026,null,"",,,,,,,,,,,,,,,,
html-keyboard-response,553,831530,null,"Time's Up!",null,,,,,,,,,,,,,,,
html-keyboard-response,554,833798,2267.399999856949,"<p> Good job! You have responded correctly to 100% of the trials. </p>
                      <p>Be sure to only press the spacebar if you see a red square, and please keep your accuracy above 80%.</p>
                      <p> Press any key to continue the experiment. </p>",32,,,,,,,,,,,,,,,
html-keyboard-response,555,835656,1856.1000001430511,"<div style=""font-size:48px;"">Press any key to begin list 5 of 16 </div>",32,,,,,,,,,,,,,,,
html-keyboard-response,556,838172,null,"<div style=""font-size:60px;"">+</div>",null,,,,,,,,,,,,,,,
html-keyboard-response,557,838375,null,"<div style=""font-size:42px;"">BLUEJAY</div><img id = ""stim"" ><div class = red_square id = topsquare></div>",null,encoding,word_square,,,1,topsquare,32,false,,,BLUEJAY,4,,,
html-keyboard-response,558,838686,null,"<div style=""font-size:42px;"">BLUEJAY</div>",null,,word,BLUEJAY,,,,,,,,,,,,
html-keyboard-response,559,840198,null,"",null,,word,BLUEJAY,,,,,,,,,,,,
html-keyboard-response,560,840400,null,"<div style=""font-size:42px;"">LODGE</div><img id = ""stim"" ><div class = green_square id = bottomsquare></div>",null,encoding,word_square,,,0,bottomsquare,none,true,,,LODGE,4,,,
html-keyboard-response,561,840712,null,"<div style=""font-size:42px;"">LODGE</div>",null,,word,LODGE,,,,,,,,,,,,
html-keyboard-response,562,842226,null,"",null,,word,LODGE,,,,,,,,,,,,
html-keyboard-response,563,842430,null,"<div style=""font-size:42px;"">CABIN</div><img id = ""stim"" ><div class = red_square id = bottomsquare></div>",null,encoding,word_square,,,1,bottomsquare,32,true,,,CABIN,4,,,
html-keyboard-response,564,842742,151.79999995231628,"<div style=""font-size:42px;"">CABIN</div>",32,,word,CABIN,,,,,,,,,,,,
html-keyboard-response,565,844257,null,"",null,,word,CABIN,,,,,,,,,,,,
html-keyboard-response,566,844460,null,"<div style=""font-size:42px;"">TOASTER</div><img id = ""stim"" ><div class = red_square id = topsquare></div>",null,encoding,word_square,,,1,topsquare,32,true,,,TOASTER,4,,,
html-keyboard-response,567,844761,205.59999990463257,"<div style=""font-size:42px;"">TOASTER</div>",32,,word,TOASTER,,,,,,,,,,,,
html-keyboard-response,568,846273,null,"",null,,word,TOASTER,,,,,,,,,,,,
html-keyboard-response,569,846490,null,"<div style=""font-size:42px;"">GARLIC</div><img id = ""stim"" ><div class = red_square id = bottomsquare></div>",null,encoding,word_square,,,1,bottomsquare,32,true,,,GARLIC,4,,,
html-keyboard-response,570,846800,185.20000004768372,"<div style=""font-size:42px;"">GARLIC</div>",32,,word,GARLIC,,,,,,,,,,,,
html-keyboard-response,571,848311,null,"",null,,word,GARLIC,,,,,,,,,,,,
html-keyboard-response,572,848526,null,"<div style=""font-size:42px;"">FLIPPER</div><img id = ""stim"" ><div class = green_square id = topsquare></div>",null,encoding,word_square,,,0,topsquare,none,true,,,FLIPPER,4,,,
html-keyboard-response,573,848836,null,"<div style=""font-size:42px;"">FLIPPER</div>",null,,word,FLIPPER,,,,,,,,,,,,
html-keyboard-response,574,850341,null,"",null,,word,FLIPPER,,,,,,,,,,,,
html-keyboard-response,575,850548,null,"<div style=""font-size:42px;"">MAMMAL</div><img id = ""stim"" ><div class = green_square id = bottomsquare></div>",null,encoding,word_square,,,0,bottomsquare,none,true,,,MAMMAL,4,,,
html-keyboard-response,576,850861,null,"<div style=""font-size:42px;"">MAMMAL</div>",null,,word,MAMMAL,,,,,,,,,,,,
html-keyboard-response,577,852375,null,"",null,,word,MAMMAL,,,,,,,,,,,,
html-keyboard-response,578,852580,null,"<div style=""font-size:42px;"">FLUTE</div><img id = ""stim"" ><div class = red_square id = topsquare></div>",null,encoding,word_square,,,1,topsquare,32,true,,,FLUTE,4,,,
html-keyboard-response,579,852889,175.29999995231628,"<div style=""font-size:42px;"">FLUTE</div>",32,,word,FLUTE,,,,,,,,,,,,
html-keyboard-response,580,854404,null,"",null,,word,FLUTE,,,,,,,,,,,,
html-keyboard-response,581,854608,null,"<div style=""font-size:42px;"">SCARECROW</div><img id = ""stim"" ><div class = green_square id = topsquare></div>",null,encoding,word_square,,,0,topsquare,none,true,,,SCARECROW,4,,,
html-keyboard-response,582,854920,null,"<div style=""font-size:42px;"">SCARECROW</div>",null,,word,SCARECROW,,,,,,,,,,,,
html-keyboard-response,583,856430,null,"",null,,word,SCARECROW,,,,,,,,,,,,
html-keyboard-response,584,856632,null,"<div style=""font-size:42px;"">SQUID</div><img id = ""stim"" ><div class = red_square id = bottomsquare></div>",null,encoding,word_square,,,1,bottomsquare,32,true,,,SQUID,4,,,
html-keyboard-response,585,856946,158.40000009536743,"<div style=""font-size:42px;"">SQUID</div>",32,,word,SQUID,,,,,,,,,,,,
html-keyboard-response,586,858462,null,"",null,,word,SQUID,,,,,,,,,,,,
html-keyboard-response,587,858664,null,"<div style=""font-size:42px;"">CLERK</div><img id = ""stim"" ><div class = green_square id = bottomsquare></div>",null,encoding,word_square,,,0,bottomsquare,none,true,,,CLERK,4,,,
html-keyboard-response,588,858978,null,"<div style=""font-size:42px;"">CLERK</div>",null,,word,CLERK,,,,,,,,,,,,
html-keyboard-response,589,860491,null,"",null,,word,CLERK,,,,,,,,,,,,
html-keyboard-response,590,860698,null,"<div style=""font-size:42px;"">SHAMPOO</div><img id = ""stim"" ><div class = green_square id = topsquare></div>",null,encoding,word_square,,,0,topsquare,none,true,,,SHAMPOO,4,,,
html-keyboard-response,591,861011,null,"<div style=""font-size:42px;"">SHAMPOO</div>",null,,word,SHAMPOO,,,,,,,,,,,,
html-keyboard-response,592,862518,null,"",null,,word,SHAMPOO,,,,,,,,,,,,
html-keyboard-response,593,862722,null,"<div style=""font-size:42px;"">YOLK</div><img id = ""stim"" ><div class = red_square id = topsquare></div>",null,encoding,word_square,,,1,topsquare,32,true,,,YOLK,4,,,
html-keyboard-response,594,863033,162.39999985694885,"<div style=""font-size:42px;"">YOLK</div>",32,,word,YOLK,,,,,,,,,,,,
html-keyboard-response,595,864547,null,"",null,,word,YOLK,,,,,,,,,,,,
html-keyboard-response,596,864752,null,"<div style=""font-size:42px;"">CUPBOARD</div><img id = ""stim"" ><div class = red_square id = bottomsquare></div>",null,encoding,word_square,,,1,bottomsquare,32,true,,,CUPBOARD,4,,,
html-keyboard-response,597,865053,200.5,"<div style=""font-size:42px;"">CUPBOARD</div>",32,,word,CUPBOARD,,,,,,,,,,,,
html-keyboard-response,598,866560,null,"",null,,word,CUPBOARD,,,,,,,,,,,,
html-keyboard-response,599,866763,null,"<div style=""font-size:42px;"">SHIRT</div><img id = ""stim"" ><div class = green_square id = bottomsquare></div>",null,encoding,word_square,,,0,bottomsquare,none,true,,,SHIRT,4,,,
html-keyboard-response,600,867076,null,"<div style=""font-size:42px;"">SHIRT</div>",null,,word,SHIRT,,,,,,,,,,,,
html-keyboard-response,601,868591,null,"",null,,word,SHIRT,,,,,,,,,,,,
html-keyboard-response,602,868806,null,"<div style=""font-size:42px;"">YACHT</div><img id = ""stim"" ><div class = green_square id = topsquare></div>",null,encoding,word_square,,,0,topsquare,none,true,,,YACHT,4,,,
html-keyboard-response,603,869120,null,"<div style=""font-size:42px;"">YACHT</div>",null,,word,YACHT,,,,,,,,,,,,
html-keyboard-response,604,870636,null,"",null,,word,YACHT,,,,,,,,,,,,
call-function,605,870636,,"",,,,,,,,,,,,,,,,
html-keyboard-response,606,870738,null,"",null,,,,,,,,,,,,,,,
math-period,607,872770,3806.399999856949,"",,,,,,,,,,,5,,,,,
html-keyboard-response,608,872882,null,"",null,,,,,,,,,,,,,,,
math-period,609,873991,1972.5999999046326,"",,,,,,,,,,,4,,,,,
html-keyboard-response,610,874093,null,"",null,,,,,,,,,,,,,,,
math-period,611,874970,1623.2000000476837,"",,,,,,,,,,,3,,,,,
html-keyboard-response,612,875074,null,"",null,,,,,,,,,,,,,,,
math-period,613,875961,1541.4000000953674,"",,,,,,,,,,,2,,,,,
html-keyboard-response,614,876072,null,"",null,,,,,,,,,,,,,,,
math-period,615,876995,1585.2000002861023,"",,,,,,,,,,,3,,,,,
html-keyboard-response,616,877098,null,"",null,,,,,,,,,,,,,,,
math-period,617,877900,1369.9000000953674,"",,,,,,,,,,,3,,,,,
html-keyboard-response,618,878012,null,"",null,,,,,,,,,,,,,,,
math-period,619,879165,2028.599999666214,"",,,,,,,,,,,6,,,,,
html-keyboard-response,620,879279,null,"",null,,,,,,,,,,,,,,,
math-period,621,880185,1577.8000001907349,"",,,,,,,,,,,3,,,,,
html-keyboard-response,622,880292,null,"",null,,,,,,,,,,,,,,,
math-period,623,881060,1302.8000001907349,"",,,,,,,,,,,3,,,,,
html-keyboard-response,624,881163,null,"",null,,,,,,,,,,,,,,,
math-period,625,882440,2305.2999999523163,"",,,,,,,,,,,2,,,,,
html-keyboard-response,626,882542,null,"",null,,,,,,,,,,,,,,,
math-period,627,883459,1572.9999997615814,"",,,,,,,,,,,3,,,,,
html-keyboard-response,628,883567,null,"",null,,,,,,,,,,,,,,,
math-period,629,884508,1721.1000001430511,"",,,,,,,,,,,4,,,,,
html-keyboard-response,630,884614,null,"",null,,,,,,,,,,,,,,,
math-period,631,886349,2977.100000143051,"",,,,,,,,,,,2,,,,,
html-keyboard-response,632,886461,null,"",null,,,,,,,,,,,,,,,
math-period,633,887621,2122.800000190735,"",,,,,,,,,,,5,,,,,
html-keyboard-response,634,887726,null,"",null,,,,,,,,,,,,,,,
math-period,635,888648,1667.7999999523163,"",,,,,,,,,,,5,,,,,
html-keyboard-response,636,888752,null,"",null,,,,,,,,,,,,,,,
math-period,637,892155,10998.899999856949,"",,,,,,,,,,,0,,,,,
html-keyboard-response,638,892257,null,"",null,,,,,,,,,,,,,,,
math-period,639,893247,1833.5,"",,,,,,,,,,,5,,,,,
html-keyboard-response,640,893363,null,"",null,,,,,,,,,,,,,,,
math-period,641,894652,null,"",,,,,,,,,,,,,,,,
html-keyboard-response,642,895663,null,"Recall Period!",null,,,,,,,,,,,,,,,
call-function,643,895663,,"",,,,,,,,,,,,,,,,
html-keyboard-response,644,895771,null,"",null,,,,,,,,,,,,,,,
recall-period,645,901051,28402.200000047684,"",,,,,,,,,,,shirt,,,,,
html-keyboard-response,646,901167,null,"",null,,,,,,,,,,,,,,,
recall-period,647,903509,10960.39999961853,"",,,,,,,,,,,cupboard,,,,,
html-keyboard-response,648,903619,null,"",null,,,,,,,,,,,,,,,
recall-period,649,928853,193926,"",,,,,,,,,,,toaster,,,,,
html-keyboard-response,650,928964,null,"",null,,,,,,,,,,,,,,,
recall-period,651,970680,null,"",,,,,,,,,,,,,,,,
html-keyboard-response,652,971195,null,"Time's Up!",null,,,,,,,,,,,,,,,
html-keyboard-response,653,972692,1495.9000000953674,"<p> Good job! You have responded correctly to 99% of the trials. </p>
                      <p>Be sure to only press the spacebar if you see a red square, and please keep your accuracy above 80%.</p>
                      <p> Press any key to continue the experiment. </p>",32,,,,,,,,,,,,,,,
html-keyboard-response,654,973738,1044.3000001907349,"<div style=""font-size:48px;"">Press any key to begin list 6 of 16 </div>",32,,,,,,,,,,,,,,,
html-keyboard-response,655,976265,null,"<div style=""font-size:60px;"">+</div>",null,,,,,,,,,,,,,,,
html-keyboard-response,656,976469,null,"<div style=""font-size:42px;"">TOILET</div><img id = ""stim"" ><div class = green_square id = topsquare></div>",null,encoding,word_square,,,0,topsquare,none,true,,,TOILET,5,,,
html-keyboard-response,657,976779,null,"<div style=""font-size:42px;"">TOILET</div>",null,,word,TOILET,,,,,,,,,,,,
html-keyboard-response,658,978286,null,"",null,,word,TOILET,,,,,,,,,,,,
html-keyboard-response,659,978503,null,"<div style=""font-size:42px;"">SPOOL</div><img id = ""stim"" ><div class = green_square id = bottomsquare></div>",null,encoding,word_square,,,0,bottomsquare,none,true,,,SPOOL,5,,,
html-keyboard-response,660,978816,null,"<div style=""font-size:42px;"">SPOOL</div>",null,,word,SPOOL,,,,,,,,,,,,
html-keyboard-response,661,980323,null,"",null,,word,SPOOL,,,,,,,,,,,,
html-keyboard-response,662,980528,null,"<div style=""font-size:42px;"">MARKER</div><img id = ""stim"" ><div class = red_square id = bottomsquare></div>",null,encoding,word_square,,,1,bottomsquare,32,true,,,MARKER,5,,,
html-keyboard-response,663,980838,null,"<div style=""font-size:42px;"">MARKER</div>",null,,word,MARKER,,,,,,,,,,,,
html-keyboard-response,664,982354,21.59999990463257,"",32,,word,MARKER,,,,,,,,,,,,
html-keyboard-response,665,982557,null,"<div style=""font-size:42px;"">CATTLE</div><img id = ""stim"" ><div class = red_square id = topsquare></div>",null,encoding,word_square,,,1,topsquare,32,true,,,CATTLE,5,,,
html-keyboard-response,666,982868,174.40000009536743,"<div style=""font-size:42px;"">CATTLE</div>",32,,word,CATTLE,,,,,,,,,,,,
html-keyboard-response,667,984378,null,"",null,,word,CATTLE,,,,,,,,,,,,
html-keyboard-response,668,984584,null,"<div style=""font-size:42px;"">SPOON</div><img id = ""stim"" ><div class = green_square id = topsquare></div>",null,encoding,word_square,,,0,topsquare,none,false,,,SPOON,5,,,
html-keyboard-response,669,984895,null,"<div style=""font-size:42px;"">SPOON</div>",null,,word,SPOON,,,,,,,,,,,,
html-keyboard-response,670,986407,165.20000004768372,"",32,,word,SPOON,,,,,,,,,,,,
html-keyboard-response,671,986610,null,"<div style=""font-size:42px;"">LASER</div><img id = ""stim"" ><div class = green_square id = bottomsquare></div>",null,encoding,word_square,,,0,bottomsquare,none,true,,,LASER,5,,,
html-keyboard-response,672,986923,null,"<div style=""font-size:42px;"">LASER</div>",null,,word,LASER,,,,,,,,,,,,
html-keyboard-response,673,988439,null,"",null,,word,LASER,,,,,,,,,,,,
html-keyboard-response,674,988656,null,"<div style=""font-size:42px;"">ICEBERG</div><img id = ""stim"" ><div class = red_square id = bottomsquare></div>",null,encoding,word_square,,,1,bottomsquare,32,true,,,ICEBERG,5,,,
html-keyboard-response,675,988968,113.29999995231628,"<div style=""font-size:42px;"">ICEBERG</div>",32,,word,ICEBERG,,,,,,,,,,,,
html-keyboard-response,676,990473,null,"",null,,word,ICEBERG,,,,,,,,,,,,
html-keyboard-response,677,990678,null,"<div style=""font-size:42px;"">SCARF</div><img id = ""stim"" ><div class = green_square id = topsquare></div>",null,encoding,word_square,,,0,topsquare,none,true,,,SCARF,5,,,
html-keyboard-response,678,990989,null,"<div style=""font-size:42px;"">SCARF</div>",null,,word,SCARF,,,,,,,,,,,,
html-keyboard-response,679,992506,null,"",null,,word,SCARF,,,,,,,,,,,,
html-keyboard-response,680,992708,null,"<div style=""font-size:42px;"">JAR</div><img id = ""stim"" ><div class = red_square id = topsquare></div>",null,encoding,word_square,,,1,topsquare,32,true,,,JAR,5,,,
html-keyboard-response,681,993020,157.09999990463257,"<div style=""font-size:42px;"">JAR</div>",32,,word,JAR,,,,,,,,,,,,
html-keyboard-response,682,994526,null,"",null,,word,JAR,,,,,,,,,,,,
html-keyboard-response,683,994730,null,"<div style=""font-size:42px;"">BRIDE</div><img id = ""stim"" ><div class = green_square id = bottomsquare></div>",null,encoding,word_square,,,0,bottomsquare,none,true,,,BRIDE,5,,,
html-keyboard-response,684,995042,null,"<div style=""font-size:42px;"">BRIDE</div>",null,,word,BRIDE,,,,,,,,,,,,
html-keyboard-response,685,996550,null,"",null,,word,BRIDE,,,,,,,,,,,,
html-keyboard-response,686,996754,null,"<div style=""font-size:42px;"">PIRATE</div><img id = ""stim"" ><div class = green_square id = topsquare></div>",null,encoding,word_square,,,0,topsquare,none,true,,,PIRATE,5,,,
html-keyboard-response,687,997065,null,"<div style=""font-size:42px;"">PIRATE</div>",null,,word,PIRATE,,,,,,,,,,,,
html-keyboard-response,688,998580,null,"",null,,word,PIRATE,,,,,,,,,,,,
html-keyboard-response,689,998782,null,"<div style=""font-size:42px;"">WASHER</div><img id = ""stim"" ><div class = red_square id = bottomsquare></div>",null,encoding,word_square,,,1,bottomsquare,32,true,,,WASHER,5,,,
html-keyboard-response,690,999094,161.5,"<div style=""font-size:42px;"">WASHER</div>",32,,word,WASHER,,,,,,,,,,,,
html-keyboard-response,691,1000609,null,"",null,,word,WASHER,,,,,,,,,,,,
html-keyboard-response,692,1000813,null,"<div style=""font-size:42px;"">CANDY</div><img id = ""stim"" ><div class = red_square id = topsquare></div>",null,encoding,word_square,,,1,topsquare,32,true,,,CANDY,5,,,
html-keyboard-response,693,1001123,156.39999985694885,"<div style=""font-size:42px;"">CANDY</div>",32,,word,CANDY,,,,,,,,,,,,
html-keyboard-response,694,1002638,null,"",null,,word,CANDY,,,,,,,,,,,,
html-keyboard-response,695,1002853,null,"<div style=""font-size:42px;"">MATCH</div><img id = ""stim"" ><div class = red_square id = bottomsquare></div>",null,encoding,word_square,,,1,bottomsquare,32,true,,,MATCH,5,,,
html-keyboard-response,696,1003166,183.5,"<div style=""font-size:42px;"">MATCH</div>",32,,word,MATCH,,,,,,,,,,,,
html-keyboard-response,697,1004679,null,"",null,,word,MATCH,,,,,,,,,,,,
html-keyboard-response,698,1004882,null,"<div style=""font-size:42px;"">SPRINKLE</div><img id = ""stim"" ><div class = green_square id = bottomsquare></div>",null,encoding,word_square,,,0,bottomsquare,none,true,,,SPRINKLE,5,,,
html-keyboard-response,699,1005193,null,"<div style=""font-size:42px;"">SPRINKLE</div>",null,,word,SPRINKLE,,,,,,,,,,,,
html-keyboard-response,700,1006706,null,"",null,,word,SPRINKLE,,,,,,,,,,,,
html-keyboard-response,701,1006910,null,"<div style=""font-size:42px;"">APRON</div><img id = ""stim"" ><div class = red_square id = topsquare></div>",null,encoding,word_square,,,1,topsquare,32,true,,,APRON,5,,,
html-keyboard-response,702,1007211,222.60000014305115,"<div style=""font-size:42px;"">APRON</div>",32,,word,APRON,,,,,,,,,,,,
html-keyboard-response,703,1008723,null,"",null,,word,APRON,,,,,,,,,,,,
call-function,704,1008723,,"",,,,,,,,,,,,,,,,
html-keyboard-response,705,1008833,null,"",null,,,,,,,,,,,,,,,
math-period,706,1010695,3437.2999999523163,"",,,,,,,,,,,4,,,,,
html-keyboard-response,707,1010801,null,"",null,,,,,,,,,,,,,,,
math-period,708,1011560,1357,"",,,,,,,,,,,3,,,,,
html-keyboard-response,709,1011661,null,"",null,,,,,,,,,,,,,,,
math-period,710,1012305,1140.1000001430511,"",,,,,,,,,,,3,,,,,
html-keyboard-response,711,1012420,null,"",null,,,,,,,,,,,,,,,
math-period,712,1013671,2340.5,"",,,,,,,,,,,2,,,,,
html-keyboard-response,713,1013780,null,"",null,,,,,,,,,,,,,,,
math-period,714,1015023,2296.0999999046326,"",,,,,,,,,,,1,,,,,
html-keyboard-response,715,1015139,null,"",null,,,,,,,,,,,,,,,
math-period,716,1016571,2693,"",,,,,,,,,,,1,,,,,
html-keyboard-response,717,1016674,null,"",null,,,,,,,,,,,,,,,
math-period,718,1018942,4276.300000190735,"",,,,,,,,,,,3,,,,,
html-keyboard-response,719,1019043,null,"",null,,,,,,,,,,,,,,,
math-period,720,1019918,1548.4000000953674,"",,,,,,,,,,,3,,,,,
html-keyboard-response,721,1020034,null,"",null,,,,,,,,,,,,,,,
math-period,722,1021342,2425,"",,,,,,,,,,,4,,,,,
html-keyboard-response,723,1021447,null,"",null,,,,,,,,,,,,,,,
math-period,724,1022362,1585.7000000476837,"",,,,,,,,,,,3,,,,,
html-keyboard-response,725,1022467,null,"",null,,,,,,,,,,,,,,,
math-period,726,1024175,3153.7000000476837,"",,,,,,,,,,,3,,,,,
html-keyboard-response,727,1024291,null,"",null,,,,,,,,,,,,,,,
math-period,728,1025739,2665.7999999523163,"",,,,,,,,,,,5,,,,,
html-keyboard-response,729,1025856,null,"",null,,,,,,,,,,,,,,,
math-period,730,1028731,5560.700000047684,"",,,,,,,,,,,0,,,,,
html-keyboard-response,731,1028846,null,"",null,,,,,,,,,,,,,,,
math-period,732,1030814,3759.0999999046326,"",,,,,,,,,,,2,,,,,
html-keyboard-response,733,1030917,null,"",null,,,,,,,,,,,,,,,
math-period,734,1031993,2019.5,"",,,,,,,,,,,5,,,,,
html-keyboard-response,735,1032108,null,"",null,,,,,,,,,,,,,,,
math-period,736,1032728,null,"",,,,,,,,,,,,,,,,
html-keyboard-response,737,1033730,null,"Recall Period!",null,,,,,,,,,,,,,,,
call-function,738,1033731,,"",,,,,,,,,,,,,,,,
html-keyboard-response,739,1033839,null,"",null,,,,,,,,,,,,,,,
recall-period,740,1036925,9312.900000572205,"",,,,,,,,,,,apron,,,,,
html-keyboard-response,741,1037039,null,"",null,,,,,,,,,,,,,,,
recall-period,742,1043942,36650.799999952316,"",,,,,,,,,,,shirt,,,,,
html-keyboard-response,743,1044045,null,"",null,,,,,,,,,,,,,,,
recall-period,744,1058747,75415.49999976158,"",,,,,,,,,,,scarf,,,,,
html-keyboard-response,745,1058849,null,"",null,,,,,,,,,,,,,,,
recall-period,746,1077526,107508.39999938011,"",,,,,,,,,,,yatch,,,,,
html-keyboard-response,747,1077631,null,"",null,,,,,,,,,,,,,,,
recall-period,748,1108742,null,"",,,,,,,,,,,,,,,,
html-keyboard-response,749,1109244,null,"Time's Up!",null,,,,,,,,,,,,,,,
html-keyboard-response,750,1111092,1847.1000001430511,"<p> Good job! You have responded correctly to 98% of the trials. </p>
                      <p>Be sure to only press the spacebar if you see a red square, and please keep your accuracy above 80%.</p>
                      <p> Press any key to continue the experiment. </p>",32,,,,,,,,,,,,,,,
html-keyboard-response,751,1112328,1234.9000000953674,"<div style=""font-size:48px;"">Press any key to begin list 7 of 16 </div>",32,,,,,,,,,,,,,,,
html-keyboard-response,752,1114852,null,"<div style=""font-size:60px;"">+</div>",null,,,,,,,,,,,,,,,
html-keyboard-response,753,1115053,null,"<div style=""font-size:42px;"">COIN</div><img id = ""stim"" ><div class = green_square id = bottomsquare></div>",null,encoding,word_square,,,0,bottomsquare,none,true,,,COIN,6,,,
html-keyboard-response,754,1115367,null,"<div style=""font-size:42px;"">COIN</div>",null,,word,COIN,,,,,,,,,,,,
html-keyboard-response,755,1116878,null,"",null,,word,COIN,,,,,,,,,,,,
html-keyboard-response,756,1117080,null,"<div style=""font-size:42px;"">CORAL</div><img id = ""stim"" ><div class = red_square id = topsquare></div>",null,encoding,word_square,,,1,topsquare,32,true,,,CORAL,6,,,
html-keyboard-response,757,1117395,176.5,"<div style=""font-size:42px;"">CORAL</div>",32,,word,CORAL,,,,,,,,,,,,
html-keyboard-response,758,1118899,null,"",null,,word,CORAL,,,,,,,,,,,,
html-keyboard-response,759,1119115,null,"<div style=""font-size:42px;"">CHISEL</div><img id = ""stim"" ><div class = green_square id = topsquare></div>",null,encoding,word_square,,,0,topsquare,none,true,,,CHISEL,6,,,
html-keyboard-response,760,1119431,null,"<div style=""font-size:42px;"">CHISEL</div>",null,,word,CHISEL,,,,,,,,,,,,
html-keyboard-response,761,1120945,null,"",null,,word,CHISEL,,,,,,,,,,,,
html-keyboard-response,762,1121146,null,"<div style=""font-size:42px;"">EUROPE</div><img id = ""stim"" ><div class = green_square id = bottomsquare></div>",null,encoding,word_square,,,0,bottomsquare,none,true,,,EUROPE,6,,,
html-keyboard-response,763,1121458,null,"<div style=""font-size:42px;"">EUROPE</div>",null,,word,EUROPE,,,,,,,,,,,,
html-keyboard-response,764,1122970,null,"",null,,word,EUROPE,,,,,,,,,,,,
html-keyboard-response,765,1123172,null,"<div style=""font-size:42px;"">ARTIST</div><img id = ""stim"" ><div class = green_square id = topsquare></div>",null,encoding,word_square,,,0,topsquare,none,true,,,ARTIST,6,,,
html-keyboard-response,766,1123487,null,"<div style=""font-size:42px;"">ARTIST</div>",null,,word,ARTIST,,,,,,,,,,,,
html-keyboard-response,767,1125000,null,"",null,,word,ARTIST,,,,,,,,,,,,
html-keyboard-response,768,1125203,null,"<div style=""font-size:42px;"">CRYSTAL</div><img id = ""stim"" ><div class = red_square id = bottomsquare></div>",null,encoding,word_square,,,1,bottomsquare,32,true,,,CRYSTAL,6,,,
html-keyboard-response,769,1125515,130.5,"<div style=""font-size:42px;"">CRYSTAL</div>",32,,word,CRYSTAL,,,,,,,,,,,,
html-keyboard-response,770,1127017,null,"",null,,word,CRYSTAL,,,,,,,,,,,,
html-keyboard-response,771,1127222,null,"<div style=""font-size:42px;"">FRIES</div><img id = ""stim"" ><div class = red_square id = topsquare></div>",null,encoding,word_square,,,1,topsquare,32,true,,,FRIES,6,,,
html-keyboard-response,772,1127534,null,"<div style=""font-size:42px;"">FRIES</div>",null,,word,FRIES,,,,,,,,,,,,
html-keyboard-response,773,1129050,42.09999990463257,"",32,,word,FRIES,,,,,,,,,,,,
html-keyboard-response,774,1129256,null,"<div style=""font-size:42px;"">TWIG</div><img id = ""stim"" ><div class = green_square id = bottomsquare></div>",null,encoding,word_square,,,0,bottomsquare,none,true,,,TWIG,6,,,
html-keyboard-response,775,1129569,null,"<div style=""font-size:42px;"">TWIG</div>",null,,word,TWIG,,,,,,,,,,,,
html-keyboard-response,776,1131078,null,"",null,,word,TWIG,,,,,,,,,,,,
html-keyboard-response,777,1131295,null,"<div style=""font-size:42px;"">NOTEBOOK</div><img id = ""stim"" ><div class = red_square id = bottomsquare></div>",null,encoding,word_square,,,1,bottomsquare,32,true,,,NOTEBOOK,6,,,
html-keyboard-response,778,1131605,141.5,"<div style=""font-size:42px;"">NOTEBOOK</div>",32,,word,NOTEBOOK,,,,,,,,,,,,
html-keyboard-response,779,1133107,null,"",null,,word,NOTEBOOK,,,,,,,,,,,,
html-keyboard-response,780,1133309,null,"<div style=""font-size:42px;"">COBBLER</div><img id = ""stim"" ><div class = green_square id = topsquare></div>",null,encoding,word_square,,,0,topsquare,none,true,,,COBBLER,6,,,
html-keyboard-response,781,1133620,null,"<div style=""font-size:42px;"">COBBLER</div>",null,,word,COBBLER,,,,,,,,,,,,
html-keyboard-response,782,1135125,null,"",null,,word,COBBLER,,,,,,,,,,,,
html-keyboard-response,783,1135327,null,"<div style=""font-size:42px;"">LILY</div><img id = ""stim"" ><div class = red_square id = topsquare></div>",null,encoding,word_square,,,1,topsquare,32,true,,,LILY,6,,,
html-keyboard-response,784,1135638,191.70000004768372,"<div style=""font-size:42px;"">LILY</div>",32,,word,LILY,,,,,,,,,,,,
html-keyboard-response,785,1137155,null,"",null,,word,LILY,,,,,,,,,,,,
html-keyboard-response,786,1137359,null,"<div style=""font-size:42px;"">SLOPE</div><img id = ""stim"" ><div class = red_square id = bottomsquare></div>",null,encoding,word_square,,,1,bottomsquare,32,true,,,SLOPE,6,,,
html-keyboard-response,787,1137672,242.09999990463257,"<div style=""font-size:42px;"">SLOPE</div>",32,,word,SLOPE,,,,,,,,,,,,
html-keyboard-response,788,1139187,null,"",null,,word,SLOPE,,,,,,,,,,,,
html-keyboard-response,789,1139391,null,"<div style=""font-size:42px;"">CASHIER</div><img id = ""stim"" ><div class = green_square id = bottomsquare></div>",null,encoding,word_square,,,0,bottomsquare,none,true,,,CASHIER,6,,,
html-keyboard-response,790,1139703,null,"<div style=""font-size:42px;"">CASHIER</div>",null,,word,CASHIER,,,,,,,,,,,,
html-keyboard-response,791,1141212,null,"",null,,word,CASHIER,,,,,,,,,,,,
html-keyboard-response,792,1141415,null,"<div style=""font-size:42px;"">FATHER</div><img id = ""stim"" ><div class = green_square id = topsquare></div>",null,encoding,word_square,,,0,topsquare,none,true,,,FATHER,6,,,
html-keyboard-response,793,1141723,null,"<div style=""font-size:42px;"">FATHER</div>",null,,word,FATHER,,,,,,,,,,,,
html-keyboard-response,794,1143237,null,"",null,,word,FATHER,,,,,,,,,,,,
html-keyboard-response,795,1143440,null,"<div style=""font-size:42px;"">CHIPMUNK</div><img id = ""stim"" ><div class = red_square id = topsquare></div>",null,encoding,word_square,,,1,topsquare,32,true,,,CHIPMUNK,6,,,
html-keyboard-response,796,1143741,257,"<div style=""font-size:42px;"">CHIPMUNK</div>",32,,word,CHIPMUNK,,,,,,,,,,,,
html-keyboard-response,797,1145255,null,"",null,,word,CHIPMUNK,,,,,,,,,,,,
html-keyboard-response,798,1145459,null,"<div style=""font-size:42px;"">PISTOL</div><img id = ""stim"" ><div class = red_square id = bottomsquare></div>",null,encoding,word_square,,,1,bottomsquare,32,true,,,PISTOL,6,,,
html-keyboard-response,799,1145772,190.39999985694885,"<div style=""font-size:42px;"">PISTOL</div>",32,,word,PISTOL,,,,,,,,,,,,
html-keyboard-response,800,1147283,null,"",null,,word,PISTOL,,,,,,,,,,,,
call-function,801,1147284,,"",,,,,,,,,,,,,,,,
html-keyboard-response,802,1147392,null,"",null,,,,,,,,,,,,,,,
math-period,803,1149301,3542.599999666214,"",,,,,,,,,,,3,,,,,
html-keyboard-response,804,1149403,null,"",null,,,,,,,,,,,,,,,
math-period,805,1150769,2239.4999997615814,"",,,,,,,,,,,4,,,,,
html-keyboard-response,806,1150878,null,"",null,,,,,,,,,,,,,,,
math-period,807,1152088,2075.399999856949,"",,,,,,,,,,,3,,,,,
html-keyboard-response,808,1152189,null,"",null,,,,,,,,,,,,,,,
math-period,809,1153310,1852.5999999046326,"",,,,,,,,,,,4,,,,,
html-keyboard-response,810,1153412,null,"",null,,,,,,,,,,,,,,,
math-period,811,1154906,2739.7999997138977,"",,,,,,,,,,,1,,,,,
html-keyboard-response,812,1155008,null,"",null,,,,,,,,,,,,,,,
math-period,813,1157005,3774.899999856949,"",,,,,,,,,,,2,,,,,
html-keyboard-response,814,1157107,null,"",null,,,,,,,,,,,,,,,
math-period,815,1159029,2835.300000190735,"",,,,,,,,,,,3,,,,,
html-keyboard-response,816,1159134,null,"",null,,,,,,,,,,,,,,,
math-period,817,1160279,1972.5999999046326,"",,,,,,,,,,,4,,,,,
html-keyboard-response,818,1160393,null,"",null,,,,,,,,,,,,,,,
math-period,819,1161370,1723.9999997615814,"",,,,,,,,,,,3,,,,,
html-keyboard-response,820,1161480,null,"",null,,,,,,,,,,,,,,,
math-period,821,1162822,2437,"",,,,,,,,,,,6,,,,,
html-keyboard-response,822,1162924,null,"",null,,,,,,,,,,,,,,,
math-period,823,1164535,2656.4000000953674,"",,,,,,,,,,,5,,,,,
html-keyboard-response,824,1164648,null,"",null,,,,,,,,,,,,,,,
math-period,825,1165940,2211.5999999046326,"",,,,,,,,,,,2,,,,,
html-keyboard-response,826,1166054,null,"",null,,,,,,,,,,,,,,,
math-period,827,1167234,1985.7999999523163,"",,,,,,,,,,,2,,,,,
html-keyboard-response,828,1167337,null,"",null,,,,,,,,,,,,,,,
math-period,829,1168845,2710.9000000953674,"",,,,,,,,,,,2,,,,,
html-keyboard-response,830,1168946,null,"",null,,,,,,,,,,,,,,,
math-period,831,1170740,2940.5999999046326,"",,,,,,,,,,,2,,,,,
html-keyboard-response,832,1170845,null,"",null,,,,,,,,,,,,,,,
math-period,833,1171292,null,"",,,,,,,,,,,,,,,,
html-keyboard-response,834,1172301,null,"Recall Period!",null,,,,,,,,,,,,,,,
call-function,835,1172301,,"",,,,,,,,,,,,,,,,
html-keyboard-response,836,1172411,null,"",null,,,,,,,,,,,,,,,
recall-period,837,1176046,11205.099999904633,"",,,,,,,,,,,lily,,,,,
html-keyboard-response,838,1176153,null,"",null,,,,,,,,,,,,,,,
recall-period,839,1178531,10218.699999809265,"",,,,,,,,,,,europe,,,,,
html-keyboard-response,840,1178633,null,"",null,,,,,,,,,,,,,,,
recall-period,841,1184809,30800.300000667572,"",,,,,,,,,,,chipmunk,,,,,
html-keyboard-response,842,1184924,null,"",null,,,,,,,,,,,,,,,
recall-period,843,1187969,13760.900000572205,"",,,,,,,,,,,notebook,,,,,
html-keyboard-response,844,1188078,null,"",null,,,,,,,,,,,,,,,
recall-period,845,1190773,12805.20000052452,"",,,,,,,,,,,father,,,,,
html-keyboard-response,846,1190881,null,"",null,,,,,,,,,,,,,,,
recall-period,847,1196161,47765.60000085831,"",,,,,,,,,,,coin,,,,,
html-keyboard-response,848,1196262,null,"",null,,,,,,,,,,,,,,,
recall-period,849,1197282,3085.7000000476837,"",,,,,,,,,,,coral,,,,,
html-keyboard-response,850,1197399,null,"",null,,,,,,,,,,,,,,,
recall-period,851,1229196,187420.20000052452,"",,,,,,,,,,,candy,,,,,
html-keyboard-response,852,1229309,null,"",null,,,,,,,,,,,,,,,
recall-period,853,1247310,null,"",,,,,,,,,,,,,,,,
html-keyboard-response,854,1247823,null,"Time's Up!",null,,,,,,,,,,,,,,,
html-keyboard-response,855,1249729,1904.5,"<p> Good job! You have responded correctly to 98% of the trials. </p>
                      <p>Be sure to only press the spacebar if you see a red square, and please keep your accuracy above 80%.</p>
                      <p> Press any key to continue the experiment. </p>",32,,,,,,,,,,,,,,,
html-keyboard-response,856,1250777,1047.2999999523163,"<div style=""font-size:48px;"">Press any key to begin list 8 of 16 </div>",32,,,,,,,,,,,,,,,
html-keyboard-response,857,1253293,null,"<div style=""font-size:60px;"">+</div>",null,,,,,,,,,,,,,,,
html-keyboard-response,858,1253501,null,"<div style=""font-size:42px;"">ROCKET</div><img id = ""stim"" ><div class = red_square id = bottomsquare></div>",null,encoding,word_square,,,1,bottomsquare,32,true,,,ROCKET,7,,,
html-keyboard-response,859,1253813,null,"<div style=""font-size:42px;"">ROCKET</div>",null,,word,ROCKET,,,,,,,,,,,,
html-keyboard-response,860,1255328,180.60000014305115,"",32,,word,ROCKET,,,,,,,,,,,,
html-keyboard-response,861,1255534,null,"<div style=""font-size:42px;"">LAKE</div><img id = ""stim"" ><div class = red_square id = topsquare></div>",null,encoding,word_square,,,1,topsquare,32,true,,,LAKE,7,,,
html-keyboard-response,862,1255835,210.39999985694885,"<div style=""font-size:42px;"">LAKE</div>",32,,word,LAKE,,,,,,,,,,,,
html-keyboard-response,863,1257349,null,"",null,,word,LAKE,,,,,,,,,,,,
html-keyboard-response,864,1257555,null,"<div style=""font-size:42px;"">CABLE</div><img id = ""stim"" ><div class = green_square id = topsquare></div>",null,encoding,word_square,,,0,topsquare,none,false,,,CABLE,7,,,
html-keyboard-response,865,1257865,null,"<div style=""font-size:42px;"">CABLE</div>",null,,word,CABLE,,,,,,,,,,,,
html-keyboard-response,866,1259367,49,"",32,,word,CABLE,,,,,,,,,,,,
html-keyboard-response,867,1259570,null,"<div style=""font-size:42px;"">STOCKING</div><img id = ""stim"" ><div class = green_square id = bottomsquare></div>",null,encoding,word_square,,,0,bottomsquare,none,true,,,STOCKING,7,,,
html-keyboard-response,868,1259881,null,"<div style=""font-size:42px;"">STOCKING</div>",null,,word,STOCKING,,,,,,,,,,,,
html-keyboard-response,869,1261390,null,"",null,,word,STOCKING,,,,,,,,,,,,
html-keyboard-response,870,1261593,null,"<div style=""font-size:42px;"">BRUNETTE</div><img id = ""stim"" ><div class = red_square id = bottomsquare></div>",null,encoding,word_square,,,1,bottomsquare,32,true,,,BRUNETTE,7,,,
html-keyboard-response,871,1261903,160.20000004768372,"<div style=""font-size:42px;"">BRUNETTE</div>",32,,word,BRUNETTE,,,,,,,,,,,,
html-keyboard-response,872,1263405,null,"",null,,word,BRUNETTE,,,,,,,,,,,,
html-keyboard-response,873,1263609,null,"<div style=""font-size:42px;"">GALLON</div><img id = ""stim"" ><div class = red_square id = topsquare></div>",null,encoding,word_square,,,1,topsquare,32,true,,,GALLON,7,,,
html-keyboard-response,874,1263917,227.5,"<div style=""font-size:42px;"">GALLON</div>",32,,word,GALLON,,,,,,,,,,,,
html-keyboard-response,875,1265428,null,"",null,,word,GALLON,,,,,,,,,,,,
html-keyboard-response,876,1265631,null,"<div style=""font-size:42px;"">MILK</div><img id = ""stim"" ><div class = green_square id = topsquare></div>",null,encoding,word_square,,,0,topsquare,none,true,,,MILK,7,,,
html-keyboard-response,877,1265945,null,"<div style=""font-size:42px;"">MILK</div>",null,,word,MILK,,,,,,,,,,,,
html-keyboard-response,878,1267452,null,"",null,,word,MILK,,,,,,,,,,,,
html-keyboard-response,879,1267660,null,"<div style=""font-size:42px;"">DONKEY</div><img id = ""stim"" ><div class = red_square id = bottomsquare></div>",null,encoding,word_square,,,1,bottomsquare,32,true,,,DONKEY,7,,,
html-keyboard-response,880,1267972,160.09999990463257,"<div style=""font-size:42px;"">DONKEY</div>",32,,word,DONKEY,,,,,,,,,,,,
html-keyboard-response,881,1269484,null,"",null,,word,DONKEY,,,,,,,,,,,,
html-keyboard-response,882,1269689,null,"<div style=""font-size:42px;"">CRATER</div><img id = ""stim"" ><div class = green_square id = bottomsquare></div>",null,encoding,word_square,,,0,bottomsquare,none,true,,,CRATER,7,,,
html-keyboard-response,883,1270005,null,"<div style=""font-size:42px;"">CRATER</div>",null,,word,CRATER,,,,,,,,,,,,
html-keyboard-response,884,1271514,null,"",null,,word,CRATER,,,,,,,,,,,,
html-keyboard-response,885,1271719,null,"<div style=""font-size:42px;"">FOX</div><img id = ""stim"" ><div class = red_square id = topsquare></div>",null,encoding,word_square,,,1,topsquare,32,true,,,FOX,7,,,
html-keyboard-response,886,1272035,196.5,"<div style=""font-size:42px;"">FOX</div>",32,,word,FOX,,,,,,,,,,,,
html-keyboard-response,887,1273541,null,"",null,,word,FOX,,,,,,,,,,,,
html-keyboard-response,888,1273743,null,"<div style=""font-size:42px;"">RELISH</div><img id = ""stim"" ><div class = red_square id = bottomsquare></div>",null,encoding,word_square,,,1,bottomsquare,32,true,,,RELISH,7,,,
html-keyboard-response,889,1274056,157.70000004768372,"<div style=""font-size:42px;"">RELISH</div>",32,,word,RELISH,,,,,,,,,,,,
html-keyboard-response,890,1275570,null,"",null,,word,RELISH,,,,,,,,,,,,
html-keyboard-response,891,1275777,null,"<div style=""font-size:42px;"">FEMALE</div><img id = ""stim"" ><div class = green_square id = topsquare></div>",null,encoding,word_square,,,0,topsquare,none,true,,,FEMALE,7,,,
html-keyboard-response,892,1276088,null,"<div style=""font-size:42px;"">FEMALE</div>",null,,word,FEMALE,,,,,,,,,,,,
html-keyboard-response,893,1277596,null,"",null,,word,FEMALE,,,,,,,,,,,,
html-keyboard-response,894,1277802,null,"<div style=""font-size:42px;"">KETCHUP</div><img id = ""stim"" ><div class = green_square id = bottomsquare></div>",null,encoding,word_square,,,0,bottomsquare,none,true,,,KETCHUP,7,,,
html-keyboard-response,895,1278117,null,"<div style=""font-size:42px;"">KETCHUP</div>",null,,word,KETCHUP,,,,,,,,,,,,
html-keyboard-response,896,1279618,null,"",null,,word,KETCHUP,,,,,,,,,,,,
html-keyboard-response,897,1279835,null,"<div style=""font-size:42px;"">MISSILE</div><img id = ""stim"" ><div class = green_square id = topsquare></div>",null,encoding,word_square,,,0,topsquare,none,true,,,MISSILE,7,,,
html-keyboard-response,898,1280148,null,"<div style=""font-size:42px;"">MISSILE</div>",null,,word,MISSILE,,,,,,,,,,,,
html-keyboard-response,899,1281660,null,"",null,,word,MISSILE,,,,,,,,,,,,
html-keyboard-response,900,1281863,null,"<div style=""font-size:42px;"">SATURN</div><img id = ""stim"" ><div class = red_square id = topsquare></div>",null,encoding,word_square,,,1,topsquare,32,true,,,SATURN,7,,,
html-keyboard-response,901,1282166,223.69999980926514,"<div style=""font-size:42px;"">SATURN</div>",32,,word,SATURN,,,,,,,,,,,,
html-keyboard-response,902,1283681,null,"",null,,word,SATURN,,,,,,,,,,,,
html-keyboard-response,903,1283883,null,"<div style=""font-size:42px;"">ELBOW</div><img id = ""stim"" ><div class = green_square id = bottomsquare></div>",null,encoding,word_square,,,0,bottomsquare,none,true,,,ELBOW,7,,,
html-keyboard-response,904,1284199,null,"<div style=""font-size:42px;"">ELBOW</div>",null,,word,ELBOW,,,,,,,,,,,,
html-keyboard-response,905,1285701,null,"",null,,word,ELBOW,,,,,,,,,,,,
call-function,906,1285702,,"",,,,,,,,,,,,,,,,
html-keyboard-response,907,1285803,null,"",null,,,,,,,,,,,,,,,
math-period,908,1289431,6075.700000047684,"",,,,,,,,,,,3,,,,,
html-keyboard-response,909,1289543,null,"",null,,,,,,,,,,,,,,,
math-period,910,1291614,2976.899999856949,"",,,,,,,,,,,5,,,,,
html-keyboard-response,911,1291718,null,"",null,,,,,,,,,,,,,,,
math-period,912,1292937,2104.2999999523163,"",,,,,,,,,,,3,,,,,
html-keyboard-response,913,1293047,null,"",null,,,,,,,,,,,,,,,
math-period,914,1296010,4545.5,"",,,,,,,,,,,3,,,,,
html-keyboard-response,915,1296123,null,"",null,,,,,,,,,,,,,,,
math-period,916,1297420,2144.5000002384186,"",,,,,,,,,,,4,,,,,
html-keyboard-response,917,1297531,null,"",null,,,,,,,,,,,,,,,
math-period,918,1301242,7175.300000190735,"",,,,,,,,,,,0,,,,,
html-keyboard-response,919,1301345,null,"",null,,,,,,,,,,,,,,,
math-period,920,1303955,4977.600000143051,"",,,,,,,,,,,1,,,,,
html-keyboard-response,921,1304061,null,"",null,,,,,,,,,,,,,,,
math-period,922,1305697,2953.4000000953674,"",,,,,,,,,,,3,,,,,
html-keyboard-response,923,1305808,null,"",null,,,,,,,,,,,,,,,
math-period,924,1307650,3406.7999997138977,"",,,,,,,,,,,1,,,,,
html-keyboard-response,925,1307764,null,"",null,,,,,,,,,,,,,,,
math-period,926,1309376,2804.800000190735,"",,,,,,,,,,,6,,,,,
html-keyboard-response,927,1309489,null,"",null,,,,,,,,,,,,,,,
math-period,928,1309710,null,"",,,,,,,,,,,,,,,,
html-keyboard-response,929,1310711,null,"Recall Period!",null,,,,,,,,,,,,,,,
call-function,930,1310712,,"",,,,,,,,,,,,,,,,
html-keyboard-response,931,1310820,null,"",null,,,,,,,,,,,,,,,
recall-period,932,1313886,16503.899999141693,"",,,,,,,,,,,female,,,,,
html-keyboard-response,933,1313991,null,"",null,,,,,,,,,,,,,,,
recall-period,934,1316041,9464.10000038147,"",,,,,,,,,,,ketchup,,,,,
html-keyboard-response,935,1316145,null,"",null,,,,,,,,,,,,,,,
recall-period,936,1318009,7712.000000476837,"",,,,,,,,,,,missle,,,,,
html-keyboard-response,937,1318122,null,"",null,,,,,,,,,,,,,,,
recall-period,938,1319750,4940.799999952316,"",,,,,,,,,,,relish,,,,,
html-keyboard-response,939,1319851,null,"",null,,,,,,,,,,,,,,,
recall-period,940,1336968,116051.90000081062,"",,,,,,,,,,,rocket,,,,,
html-keyboard-response,941,1337080,null,"",null,,,,,,,,,,,,,,,
recall-period,942,1348204,53646.00000047684,"",,,,,,,,,,,blue,,,,,
html-keyboard-response,943,1348314,null,"",null,,,,,,,,,,,,,,,
recall-period,944,1385716,null,"",,,,,,,,,,,,,,,,
html-keyboard-response,945,1386232,null,"Time's Up!",null,,,,,,,,,,,,,,,
html-keyboard-response,946,1402888,16653.5,"<p> Good job! You have responded correctly to 98% of the trials. </p>
