trial_type,trial_index,time_elapsed,rt,stimulus,key_press,exp_phase,test_part,word,task,targ_cond,sq_pos,correctKeyCode,correct,value,response,Word,List,RecResp,serial_pos,colorChosen
pavlovia,0,2559,,"",,,,,,,,,,,,,,,,
external-html,1,12267,9584.10000000149,"",,,,,,,,,,,,,,,,
html-keyboard-response,2,13802,1532.199999999255,"Welcome to the experiment. Press any key to begin.",32,,,,,,,,,,,,,,,
html-keyboard-response,3,21109,7305.5,"<p>You will see a list of words and colored squares in the following task.<p><p>Press the spacebar whenever you see a red square.<p><p>Do not press a key if the square is green.<p><p>Press the spacebar to continue.</p>",32,,,,,,,,,,,,,,,
html-keyboard-response,4,43097,21472.900000002235,"<p>Please try to remember as many of the words as you can, and try to think about the meaning of each word as it appears.<p><p>After the detection and encoding task you will be asked to solve some math problems for 24 seconds.<p> Please solve as many problems as you can in the time given. <p><p><p>Press the spacebar to continue.</p>",32,,,,,,,,,,,,,,,
html-keyboard-response,5,51785,8181.39999999851,"After solving the math problems, you will be asked to type in as many words <p>from the previous list as you can remember for 75 seconds.<p> If you finish recalling before the 75 seconds are up,<p> just sit tight and try to think of any more words you could have missed. <p><p><p>Press the spacebar to continue.</p>",32,,,,,,,,,,,,,,,
html-keyboard-response,6,59941,7650.099999997765,"There will be 16 lists of words and recall, followed  by<p><p> a recognition phase. The experiment is expected to take up to 90 minutes.<p>We will begin with a brief practice session.<p>Press the spacebar to begin the practice.</p>",32,,,,,,,,,,,,,,,
html-keyboard-response,7,62461,null,"<div style=""font-size:60px;"">+</div>",null,,,,,,,,,,,,,,,
html-keyboard-response,8,62679,null,"<div style=""font-size:42px;"">HAPPY</div><img id = ""stim"" ><div class = green_square id = ""bottomsquare"" ></div>",null,practice,word_square,HAPPY,prac_response,0,Bottom,none,true,,,,,,,
html-keyboard-response,9,62993,null,"<div style=""font-size:42px;"">HAPPY</div>",null,,word,HAPPY,,,,,,,,,,,,
html-keyboard-response,10,64507,null,"",null,,word,HAPPY,,,,,,,,,,,,
html-keyboard-response,11,64714,null,"<div style=""font-size:42px;"">COLD</div><img id = ""stim"" ><div class = red_square id = ""bottomsquare"" ></div>",null,practice,word_square,COLD,prac_response,1,Bottom,32,true,,,,,,,
html-keyboard-response,12,65031,244.60000000149012,"<div style=""font-size:42px;"">COLD</div>",32,,word,COLD,,,,,,,,,,,,
html-keyboard-response,13,66548,null,"",null,,word,COLD,,,,,,,,,,,,
html-keyboard-response,14,66754,null,"<div style=""font-size:42px;"">HEAVY</div><img id = ""stim"" ><div class = red_square id = ""topsquare"" ></div>",null,practice,word_square,HEAVY,prac_response,1,Top,32,true,,,,,,,
html-keyboard-response,15,67057,null,"<div style=""font-size:42px;"">HEAVY</div>",null,,word,HEAVY,,,,,,,,,,,,
html-keyboard-response,16,68564,24.800000000745058,"",32,,word,HEAVY,,,,,,,,,,,,
html-keyboard-response,17,68769,null,"<div style=""font-size:42px;"">FUNNY</div><img id = ""stim"" ><div class = green_square id = ""topsquare"" ></div>",null,practice,word_square,FUNNY,prac_response,0,Top,none,true,,,,,,,
html-keyboard-response,18,69079,null,"<div style=""font-size:42px;"">FUNNY</div>",null,,word,FUNNY,,,,,,,,,,,,
html-keyboard-response,19,70594,null,"",null,,word,FUNNY,,,,,,,,,,,,
html-keyboard-response,20,70799,null,"<div style=""font-size:42px;"">SCARY</div><img id = ""stim"" ><div class = red_square id = ""bottomsquare"" ></div>",null,practice,word_square,SCARY,prac_response,1,Bottom,32,true,,,,,,,
html-keyboard-response,21,71116,123.69999999925494,"<div style=""font-size:42px;"">SCARY</div>",32,,word,SCARY,,,,,,,,,,,,
html-keyboard-response,22,72629,null,"",null,,word,SCARY,,,,,,,,,,,,
html-keyboard-response,23,72846,null,"<div style=""font-size:42px;"">PEACEFUL</div><img id = ""stim"" ><div class = red_square id = ""topsquare"" ></div>",null,practice,word_square,PEACEFUL,prac_response,1,Top,32,true,,,,,,,
html-keyboard-response,24,73152,249,"<div style=""font-size:42px;"">PEACEFUL</div>",32,,word,PEACEFUL,,,,,,,,,,,,
html-keyboard-response,25,74666,null,"",null,,word,PEACEFUL,,,,,,,,,,,,
html-keyboard-response,26,74873,null,"<div style=""font-size:42px;"">LITTLE</div><img id = ""stim"" ><div class = green_square id = ""bottomsquare"" ></div>",null,practice,word_square,LITTLE,prac_response,0,Bottom,none,true,,,,,,,
html-keyboard-response,27,75188,null,"<div style=""font-size:42px;"">LITTLE</div>",null,,word,LITTLE,,,,,,,,,,,,
html-keyboard-response,28,76692,null,"",null,,word,LITTLE,,,,,,,,,,,,
html-keyboard-response,29,76898,null,"<div style=""font-size:42px;"">TIRED</div><img id = ""stim"" ><div class = green_square id = ""topsquare"" ></div>",null,practice,word_square,TIRED,prac_response,0,Top,none,true,,,,,,,
html-keyboard-response,30,77216,null,"<div style=""font-size:42px;"">TIRED</div>",null,,word,TIRED,,,,,,,,,,,,
html-keyboard-response,31,78720,null,"",null,,word,TIRED,,,,,,,,,,,,
html-keyboard-response,32,78923,null,"<div style=""font-size:42px;"">ENTERTAINING</div><img id = ""stim"" ><div class = green_square id = ""bottomsquare"" ></div>",null,practice,word_square,ENTERTAINING,prac_response,0,Bottom,none,true,,,,,,,
html-keyboard-response,33,79228,null,"<div style=""font-size:42px;"">ENTERTAINING</div>",null,,word,ENTERTAINING,,,,,,,,,,,,
html-keyboard-response,34,80731,null,"",null,,word,ENTERTAINING,,,,,,,,,,,,
html-keyboard-response,35,80939,null,"<div style=""font-size:42px;"">GRATEFUL</div><img id = ""stim"" ><div class = red_square id = ""bottomsquare"" ></div>",null,practice,word_square,GRATEFUL,prac_response,1,Bottom,32,true,,,,,,,
html-keyboard-response,36,81253,171.90000000223517,"<div style=""font-size:42px;"">GRATEFUL</div>",32,,word,GRATEFUL,,,,,,,,,,,,
html-keyboard-response,37,82766,null,"",null,,word,GRATEFUL,,,,,,,,,,,,
html-keyboard-response,38,82970,null,"<div style=""font-size:42px;"">LOUD</div><img id = ""stim"" ><div class = green_square id = ""topsquare"" ></div>",null,practice,word_square,LOUD,prac_response,0,Top,none,true,,,,,,,
html-keyboard-response,39,83284,null,"<div style=""font-size:42px;"">LOUD</div>",null,,word,LOUD,,,,,,,,,,,,
html-keyboard-response,40,84793,null,"",null,,word,LOUD,,,,,,,,,,,,
html-keyboard-response,41,84999,null,"<div style=""font-size:42px;"">SMART</div><img id = ""stim"" ><div class = red_square id = ""topsquare"" ></div>",null,practice,word_square,SMART,prac_response,1,Top,32,true,,,,,,,
html-keyboard-response,42,85313,166.30000000074506,"<div style=""font-size:42px;"">SMART</div>",32,,word,SMART,,,,,,,,,,,,
html-keyboard-response,43,86820,null,"",null,,word,SMART,,,,,,,,,,,,
html-keyboard-response,44,87026,null,"<div style=""font-size:42px;"">SMOOTH</div><img id = ""stim"" ><div class = red_square id = ""bottomsquare"" ></div>",null,practice,word_square,SMOOTH,prac_response,1,Bottom,32,true,,,,,,,
html-keyboard-response,45,87343,138.70000000298023,"<div style=""font-size:42px;"">SMOOTH</div>",32,,word,SMOOTH,,,,,,,,,,,,
html-keyboard-response,46,88846,null,"",null,,word,SMOOTH,,,,,,,,,,,,
html-keyboard-response,47,89052,null,"<div style=""font-size:42px;"">DISHONEST</div><img id = ""stim"" ><div class = green_square id = ""bottomsquare"" ></div>",null,practice,word_square,DISHONEST,prac_response,0,Bottom,none,true,,,,,,,
html-keyboard-response,48,89364,null,"<div style=""font-size:42px;"">DISHONEST</div>",null,,word,DISHONEST,,,,,,,,,,,,
html-keyboard-response,49,90875,null,"",null,,word,DISHONEST,,,,,,,,,,,,
html-keyboard-response,50,91077,null,"<div style=""font-size:42px;"">WEALTHY</div><img id = ""stim"" ><div class = red_square id = ""topsquare"" ></div>",null,practice,word_square,WEALTHY,prac_response,1,Top,32,true,,,,,,,
html-keyboard-response,51,91392,189.39999999850988,"<div style=""font-size:42px;"">WEALTHY</div>",32,,word,WEALTHY,,,,,,,,,,,,
html-keyboard-response,52,92906,null,"",null,,word,WEALTHY,,,,,,,,,,,,
html-keyboard-response,53,93111,null,"<div style=""font-size:42px;"">BEAUTIFUL</div><img id = ""stim"" ><div class = green_square id = ""topsquare"" ></div>",null,practice,word_square,BEAUTIFUL,prac_response,0,Top,none,true,,,,,,,
html-keyboard-response,54,93414,null,"<div style=""font-size:42px;"">BEAUTIFUL</div>",null,,word,BEAUTIFUL,,,,,,,,,,,,
html-keyboard-response,55,94917,null,"",null,,word,BEAUTIFUL,,,,,,,,,,,,
html-keyboard-response,56,100802,5882.300000000745,"<p> Good job! You responded correctly to 100% of the trials. </p>
                  <p>Be sure to only press the spacebar if you see a red square, and please keep your accuracy above 80%.</p>
                  <p>We're going to try once more to make sure you understand the task. press any key to continue. </p>",32,,,,,,,,,,,,,,,
html-keyboard-response,57,103320,2516.599999997765,"<p>You will see a list of words and colored squares in the following task.<p><p>Press the spacebar whenever you see a red square.<p><p>Do not press a key if the square is green<p><p>Press the spacebar to continue.</p>",32,,,,,,,,,,,,,,,
html-keyboard-response,58,105837,null,"<div style=""font-size:60px;"">+</div>",null,,,,,,,,,,,,,,,
html-keyboard-response,59,106043,null,"<div style=""font-size:42px;"">HAPPY</div><img id = ""stim"" ><div class = green_square id = ""bottomsquare"" ></div>",null,practice2,word_square,HAPPY,prac_response,0,Bottom,none,false,,,,,,,
html-keyboard-response,60,106353,null,"<div style=""font-size:42px;"">HAPPY</div>",null,,word,HAPPY,,,,,,,,,,,,
html-keyboard-response,61,107866,24.899999998509884,"",32,,word,HAPPY,,,,,,,,,,,,
html-keyboard-response,62,108072,null,"<div style=""font-size:42px;"">COLD</div><img id = ""stim"" ><div class = red_square id = ""bottomsquare"" ></div>",null,practice2,word_square,,prac_response,1,Bottom,32,true,,,,,,,
html-keyboard-response,63,108388,245.30000000074506,"<div style=""font-size:42px;"">COLD</div>",32,,word,COLD,,,,,,,,,,,,
html-keyboard-response,64,109894,null,"",null,,word,COLD,,,,,,,,,,,,
html-keyboard-response,65,110100,null,"<div style=""font-size:42px;"">HEAVY</div><img id = ""stim"" ><div class = red_square id = ""topsquare"" ></div>",null,practice2,word_square,,prac_response,1,Top,32,true,,,,,,,
html-keyboard-response,66,110417,224,"<div style=""font-size:42px;"">HEAVY</div>",32,,word,HEAVY,,,,,,,,,,,,
html-keyboard-response,67,111925,null,"",null,,word,HEAVY,,,,,,,,,,,,
html-keyboard-response,68,112130,null,"<div style=""font-size:42px;"">FUNNY</div><img id = ""stim"" ><div class = green_square id = ""topsquare"" ></div>",null,practice2,word_square,,prac_response,0,Top,none,true,,,,,,,
html-keyboard-response,69,112438,null,"<div style=""font-size:42px;"">FUNNY</div>",null,,word,FUNNY,,,,,,,,,,,,
html-keyboard-response,70,113945,null,"",null,,word,FUNNY,,,,,,,,,,,,
html-keyboard-response,71,114152,null,"<div style=""font-size:42px;"">SCARY</div><img id = ""stim"" ><div class = red_square id = ""bottomsquare"" ></div>",null,practice2,word_square,,prac_response,1,Bottom,32,true,,,,,,,
html-keyboard-response,72,114469,136.19999999925494,"<div style=""font-size:42px;"">SCARY</div>",32,,word,SCARY,,,,,,,,,,,,
html-keyboard-response,73,115972,null,"",null,,word,SCARY,,,,,,,,,,,,
html-keyboard-response,74,116176,null,"<div style=""font-size:42px;"">PEACEFUL</div><img id = ""stim"" ><div class = red_square id = ""topsquare"" ></div>",null,practice2,word_square,,prac_response,1,Top,32,true,,,,,,,
html-keyboard-response,75,116484,295.30000000074506,"<div style=""font-size:42px;"">PEACEFUL</div>",32,,word,PEACEFUL,,,,,,,,,,,,
html-keyboard-response,76,117986,null,"",null,,word,PEACEFUL,,,,,,,,,,,,
html-keyboard-response,77,118189,null,"<div style=""font-size:42px;"">LITTLE</div><img id = ""stim"" ><div class = green_square id = ""bottomsquare"" ></div>",null,practice2,word_square,LITTLE,prac_response,0,Bottom,none,true,,,,,,,
html-keyboard-response,78,118491,null,"<div style=""font-size:42px;"">LITTLE</div>",null,,word,LITTLE,,,,,,,,,,,,
html-keyboard-response,79,119997,null,"",null,,word,LITTLE,,,,,,,,,,,,
html-keyboard-response,80,120202,null,"<div style=""font-size:42px;"">TIRED</div><img id = ""stim"" ><div class = green_square id = ""topsquare"" ></div>",null,practice2,word_square,,prac_response,0,Top,none,true,,,,,,,
html-keyboard-response,81,120514,null,"<div style=""font-size:42px;"">TIRED</div>",null,,word,TIRED,,,,,,,,,,,,
html-keyboard-response,82,122024,null,"",null,,word,TIRED,,,,,,,,,,,,
html-keyboard-response,83,122230,null,"<div style=""font-size:42px;"">ENTERTAINING</div><img id = ""stim"" ><div class = green_square id = ""bottomsquare"" ></div>",null,practice2,word_square,ENTERTAINING,prac_response,0,Bottom,none,true,,,,,,,
html-keyboard-response,84,122546,null,"<div style=""font-size:42px;"">ENTERTAINING</div>",null,,word,ENTERTAINING,,,,,,,,,,,,
html-keyboard-response,85,124061,null,"",null,,word,ENTERTAINING,,,,,,,,,,,,
html-keyboard-response,86,124270,null,"<div style=""font-size:42px;"">GRATEFUL</div><img id = ""stim"" ><div class = red_square id = ""bottomsquare"" ></div>",null,practice2,word_square,,prac_response,1,Bottom,32,true,,,,,,,
html-keyboard-response,87,124577,202.10000000149012,"<div style=""font-size:42px;"">GRATEFUL</div>",32,,word,GRATEFUL,,,,,,,,,,,,
html-keyboard-response,88,126083,null,"",null,,word,GRATEFUL,,,,,,,,,,,,
html-keyboard-response,89,126285,null,"<div style=""font-size:42px;"">LOUD</div><img id = ""stim"" ><div class = green_square id = ""topsquare"" ></div>",null,practice2,word_square,,prac_response,0,Top,none,true,,,,,,,
html-keyboard-response,90,126602,null,"<div style=""font-size:42px;"">LOUD</div>",null,,word,LOUD,,,,,,,,,,,,
html-keyboard-response,91,128111,null,"",null,,word,LOUD,,,,,,,,,,,,
html-keyboard-response,92,128314,null,"<div style=""font-size:42px;"">SMART</div><img id = ""stim"" ><div class = red_square id = ""topsquare"" ></div>",null,practice2,word_square,,prac_response,1,Top,32,true,,,,,,,
html-keyboard-response,93,128620,304.79999999701977,"<div style=""font-size:42px;"">SMART</div>",32,,word,SMART,,,,,,,,,,,,
html-keyboard-response,94,130125,null,"",null,,word,SMART,,,,,,,,,,,,
html-keyboard-response,95,130331,null,"<div style=""font-size:42px;"">SMOOTH</div><img id = ""stim"" ><div class = red_square id = ""bottomsquare"" ></div>",null,practice2,word_square,,prac_response,1,Bottom,32,true,,,,,,,
html-keyboard-response,96,130643,248.5,"<div style=""font-size:42px;"">SMOOTH</div>",32,,word,SMOOTH,,,,,,,,,,,,
html-keyboard-response,97,132153,null,"",null,,word,SMOOTH,,,,,,,,,,,,
html-keyboard-response,98,132358,null,"<div style=""font-size:42px;"">DISHONEST</div><img id = ""stim"" ><div class = green_square id = ""bottomsquare"" ></div>",null,practice2,word_square,DISHONEST,prac_response,0,Bottom,none,true,,,,,,,
html-keyboard-response,99,132660,null,"<div style=""font-size:42px;"">DISHONEST</div>",null,,word,DISHONEST,,,,,,,,,,,,
html-keyboard-response,100,134164,null,"",null,,word,DISHONEST,,,,,,,,,,,,
html-keyboard-response,101,134368,null,"<div style=""font-size:42px;"">WEALTHY</div><img id = ""stim"" ><div class = red_square id = ""topsquare"" ></div>",null,practice2,word_square,,prac_response,1,Top,32,true,,,,,,,
html-keyboard-response,102,134670,156.19999999925494,"<div style=""font-size:42px;"">WEALTHY</div>",32,,word,WEALTHY,,,,,,,,,,,,
html-keyboard-response,103,136176,null,"",null,,word,WEALTHY,,,,,,,,,,,,
html-keyboard-response,104,136382,null,"<div style=""font-size:42px;"">BEAUTIFUL</div><img id = ""stim"" ><div class = green_square id = ""topsquare"" ></div>",null,practice2,word_square,,prac_response,0,Top,none,false,,,,,,,
html-keyboard-response,105,136684,null,"<div style=""font-size:42px;"">BEAUTIFUL</div>",null,,word,BEAUTIFUL,,,,,,,,,,,,
html-keyboard-response,106,138194,null,"",null,,word,BEAUTIFUL,,,,,,,,,,,,
html-keyboard-response,107,142528,4332.099999997765,"<p> Good job! You responded correctly to 94% of the trials. </p>
                    <p>Be sure to only press the spacebar if you see a red square, and please keep your accuracy above 80%.</p>
                    <p>Press any key to begin the math and recall sections. Thank you! </p>",32,,,,,,,,,,,,,,,
call-function,108,142530,,"",,,,,,,,,,,,,,,,
html-keyboard-response,109,142636,null,"",null,,,,,,,,,,,,,,,
math-period,110,150212,12751.89999999851,"",,,,,,,,,,,5numpad,,,,,
html-keyboard-response,111,150316,null,"",null,,,,,,,,,,,,,,,
math-period,112,152368,3741.10000000149,"",,,,,,,,,,,2,,,,,
html-keyboard-response,113,152474,null,"",null,,,,,,,,,,,,,,,
math-period,114,155740,5905.300000000745,"",,,,,,,,,,,5,,,,,
html-keyboard-response,115,155843,null,"",null,,,,,,,,,,,,,,,
math-period,116,159020,5945.699999999255,"",,,,,,,,,,,0,,,,,
html-keyboard-response,117,159125,null,"",null,,,,,,,,,,,,,,,
math-period,118,161411,4364.39999999851,"",,,,,,,,,,,2,,,,,
html-keyboard-response,119,161517,null,"",null,,,,,,,,,,,,,,,
math-period,120,162762,2332.60000000149,"",,,,,,,,,,,3,,,,,
html-keyboard-response,121,162870,null,"",null,,,,,,,,,,,,,,,
math-period,122,164258,2641.60000000149,"",,,,,,,,,,,2,,,,,
html-keyboard-response,123,164369,null,"",null,,,,,,,,,,,,,,,
math-period,124,166530,null,"",,,,,,,,,,,,,,,,
html-keyboard-response,125,167545,null,"Recall Period!",null,,,,,,,,,,,,,,,
call-function,126,167546,,"",,,,,,,,,,,,,,,,
html-keyboard-response,127,167648,null,"",null,,,,,,,,,,,,,,,
recall-period,128,176147,87889.79999998957,"",,,,,,,,,,,Entertaining,,,,,
html-keyboard-response,129,176251,null,"",null,,,,,,,,,,,,,,,
recall-period,130,178487,10907.900000013411,"",,,,,,,,,,,Smooth,,,,,
html-keyboard-response,131,178591,null,"",null,,,,,,,,,,,,,,,
recall-period,132,181083,14144.49999999255,"",,,,,,,,,,,Smart,,,,,
html-keyboard-response,133,181198,null,"",null,,,,,,,,,,,,,,,
recall-period,134,182714,5406.999999992549,"",,,,,,,,,,,Happy,,,,,
html-keyboard-response,135,182826,null,"",null,,,,,,,,,,,,,,,
recall-period,136,187813,24739.699999991804,"",,,,,,,,,,,Loud,,,,,
html-keyboard-response,137,187921,null,"",null,,,,,,,,,,,,,,,
recall-period,138,242551,null,"",,,,,,,,,,,,,,,,
html-keyboard-response,139,243060,null,"Time's Up!",null,,,,,,,,,,,,,,,
html-keyboard-response,140,247145,4083.60000000149,"<p>We will now begin the experiment!<p><p>Please try to remember all words from each list.<p><p>Press the spacebar whenever you see a red square.<p><p><p><p>Press the spacebar to begin.</p>",32,,,,,,,,,,,,,,,
html-keyboard-response,141,249729,2076.60000000149,"<div style=""font-size:48px;"">Press any key to begin list 1 of 16 </div>",32,,,,,,,,,,,,,,,
html-keyboard-response,142,252250,null,"<div style=""font-size:60px;"">+</div>",null,,,,,,,,,,,,,,,
html-keyboard-response,143,252455,null,"<div style=""font-size:42px;"">CAPTIVE</div><img id = ""stim"" ><div class = red_square id = topsquare></div>",null,encoding,word_square,,,1,topsquare,32,true,,,CAPTIVE,0,,,
html-keyboard-response,144,252770,267.70000000298023,"<div style=""font-size:42px;"">CAPTIVE</div>",32,,word,CAPTIVE,,,,,,,,,,,,
html-keyboard-response,145,254284,null,"",null,,word,CAPTIVE,,,,,,,,,,,,
html-keyboard-response,146,254489,null,"<div style=""font-size:42px;"">RACKET</div><img id = ""stim"" ><div class = red_square id = bottomsquare></div>",null,encoding,word_square,,,1,bottomsquare,32,true,,,RACKET,0,,,
html-keyboard-response,147,254792,158.10000000149012,"<div style=""font-size:42px;"">RACKET</div>",32,,word,RACKET,,,,,,,,,,,,
html-keyboard-response,148,256304,null,"",null,,word,RACKET,,,,,,,,,,,,
html-keyboard-response,149,256513,null,"<div style=""font-size:42px;"">YARN</div><img id = ""stim"" ><div class = green_square id = bottomsquare></div>",null,encoding,word_square,,,0,bottomsquare,none,true,,,YARN,0,,,
html-keyboard-response,150,256825,null,"<div style=""font-size:42px;"">YARN</div>",null,,word,YARN,,,,,,,,,,,,
html-keyboard-response,151,258327,null,"",null,,word,YARN,,,,,,,,,,,,
html-keyboard-response,152,258543,null,"<div style=""font-size:42px;"">PASSAGE</div><img id = ""stim"" ><div class = red_square id = topsquare></div>",null,encoding,word_square,,,1,topsquare,32,true,,,PASSAGE,0,,,
html-keyboard-response,153,258848,208.5,"<div style=""font-size:42px;"">PASSAGE</div>",32,,word,PASSAGE,,,,,,,,,,,,
html-keyboard-response,154,260354,null,"",null,,word,PASSAGE,,,,,,,,,,,,
html-keyboard-response,155,260562,null,"<div style=""font-size:42px;"">CRAB</div><img id = ""stim"" ><div class = green_square id = topsquare></div>",null,encoding,word_square,,,0,topsquare,none,true,,,CRAB,0,,,
html-keyboard-response,156,260876,null,"<div style=""font-size:42px;"">CRAB</div>",null,,word,CRAB,,,,,,,,,,,,
html-keyboard-response,157,262391,null,"",null,,word,CRAB,,,,,,,,,,,,
html-keyboard-response,158,262597,null,"<div style=""font-size:42px;"">TROUT</div><img id = ""stim"" ><div class = red_square id = bottomsquare></div>",null,encoding,word_square,,,1,bottomsquare,32,true,,,TROUT,0,,,
html-keyboard-response,159,262910,206.90000000223517,"<div style=""font-size:42px;"">TROUT</div>",32,,word,TROUT,,,,,,,,,,,,
html-keyboard-response,160,264426,null,"",null,,word,TROUT,,,,,,,,,,,,
html-keyboard-response,161,264630,null,"<div style=""font-size:42px;"">JELLY</div><img id = ""stim"" ><div class = red_square id = topsquare></div>",null,encoding,word_square,,,1,topsquare,32,true,,,JELLY,0,,,
html-keyboard-response,162,264935,191.60000000149012,"<div style=""font-size:42px;"">JELLY</div>",32,,word,JELLY,,,,,,,,,,,,
html-keyboard-response,163,266442,null,"",null,,word,JELLY,,,,,,,,,,,,
html-keyboard-response,164,266649,null,"<div style=""font-size:42px;"">SHORTS</div><img id = ""stim"" ><div class = red_square id = bottomsquare></div>",null,encoding,word_square,,,1,bottomsquare,32,true,,,SHORTS,0,,,
html-keyboard-response,165,266962,253.90000000223517,"<div style=""font-size:42px;"">SHORTS</div>",32,,word,SHORTS,,,,,,,,,,,,
html-keyboard-response,166,268472,null,"",null,,word,SHORTS,,,,,,,,,,,,
html-keyboard-response,167,268677,null,"<div style=""font-size:42px;"">CHISEL</div><img id = ""stim"" ><div class = green_square id = bottomsquare></div>",null,encoding,word_square,,,0,bottomsquare,none,true,,,CHISEL,0,,,
html-keyboard-response,168,268979,null,"<div style=""font-size:42px;"">CHISEL</div>",null,,word,CHISEL,,,,,,,,,,,,
html-keyboard-response,169,270494,null,"",null,,word,CHISEL,,,,,,,,,,,,
html-keyboard-response,170,270698,null,"<div style=""font-size:42px;"">HOSTESS</div><img id = ""stim"" ><div class = green_square id = topsquare></div>",null,encoding,word_square,,,0,topsquare,none,true,,,HOSTESS,0,,,
html-keyboard-response,171,271012,null,"<div style=""font-size:42px;"">HOSTESS</div>",null,,word,HOSTESS,,,,,,,,,,,,
html-keyboard-response,172,272516,null,"",null,,word,HOSTESS,,,,,,,,,,,,
html-keyboard-response,173,272722,null,"<div style=""font-size:42px;"">FREEWAY</div><img id = ""stim"" ><div class = red_square id = topsquare></div>",null,encoding,word_square,,,1,topsquare,32,true,,,FREEWAY,0,,,
html-keyboard-response,174,273038,261.0999999977648,"<div style=""font-size:42px;"">FREEWAY</div>",32,,word,FREEWAY,,,,,,,,,,,,
html-keyboard-response,175,274546,null,"",null,,word,FREEWAY,,,,,,,,,,,,
html-keyboard-response,176,274751,null,"<div style=""font-size:42px;"">LOUNGE</div><img id = ""stim"" ><div class = green_square id = bottomsquare></div>",null,encoding,word_square,,,0,bottomsquare,none,true,,,LOUNGE,0,,,
html-keyboard-response,177,275053,null,"<div style=""font-size:42px;"">LOUNGE</div>",null,,word,LOUNGE,,,,,,,,,,,,
html-keyboard-response,178,276570,null,"",null,,word,LOUNGE,,,,,,,,,,,,
html-keyboard-response,179,276777,null,"<div style=""font-size:42px;"">COSTUME</div><img id = ""stim"" ><div class = green_square id = topsquare></div>",null,encoding,word_square,,,0,topsquare,none,true,,,COSTUME,0,,,
html-keyboard-response,180,277093,null,"<div style=""font-size:42px;"">COSTUME</div>",null,,word,COSTUME,,,,,,,,,,,,
html-keyboard-response,181,278604,null,"",null,,word,COSTUME,,,,,,,,,,,,
html-keyboard-response,182,278810,null,"<div style=""font-size:42px;"">NOTEBOOK</div><img id = ""stim"" ><div class = red_square id = bottomsquare></div>",null,encoding,word_square,,,1,bottomsquare,32,true,,,NOTEBOOK,0,,,
html-keyboard-response,183,279126,159.30000000074506,"<div style=""font-size:42px;"">NOTEBOOK</div>",32,,word,NOTEBOOK,,,,,,,,,,,,
html-keyboard-response,184,280630,null,"",null,,word,NOTEBOOK,,,,,,,,,,,,
html-keyboard-response,185,280835,null,"<div style=""font-size:42px;"">BABY</div><img id = ""stim"" ><div class = green_square id = bottomsquare></div>",null,encoding,word_square,,,0,bottomsquare,none,true,,,BABY,0,,,
html-keyboard-response,186,281142,null,"<div style=""font-size:42px;"">BABY</div>",null,,word,BABY,,,,,,,,,,,,
html-keyboard-response,187,282657,null,"",null,,word,BABY,,,,,,,,,,,,
html-keyboard-response,188,282860,null,"<div style=""font-size:42px;"">CRIB</div><img id = ""stim"" ><div class = green_square id = topsquare></div>",null,encoding,word_square,,,0,topsquare,none,true,,,CRIB,0,,,
html-keyboard-response,189,283175,null,"<div style=""font-size:42px;"">CRIB</div>",null,,word,CRIB,,,,,,,,,,,,
html-keyboard-response,190,284682,null,"",null,,word,CRIB,,,,,,,,,,,,
call-function,191,284682,,"",,,,,,,,,,,,,,,,
html-keyboard-response,192,284798,null,"",null,,,,,,,,,,,,,,,
math-period,193,290478,10978.19999999553,"",,,,,,,,,,,1,,,,,
html-keyboard-response,194,290596,null,"",null,,,,,,,,,,,,,,,
math-period,195,292266,3051.300000000745,"",,,,,,,,,,,4,,,,,
html-keyboard-response,196,292372,null,"",null,,,,,,,,,,,,,,,
math-period,197,293494,1990.1999999955297,"",,,,,,,,,,,3,,,,,
html-keyboard-response,198,293609,null,"",null,,,,,,,,,,,,,,,
math-period,199,294913,2489.89999999851,"",,,,,,,,,,,4,,,,,
html-keyboard-response,200,295015,null,"",null,,,,,,,,,,,,,,,
math-period,201,295970,1787.9000000022352,"",,,,,,,,,,,2,,,,,
html-keyboard-response,202,296080,null,"",null,,,,,,,,,,,,,,,
math-period,203,296749,1219.800000000745,"",,,,,,,,,,,2,,,,,
html-keyboard-response,204,296858,null,"",null,,,,,,,,,,,,,,,
math-period,205,298677,3532.7999999970198,"",,,,,,,,,,,2,,,,,
html-keyboard-response,206,298779,null,"",null,,,,,,,,,,,,,,,
math-period,207,301642,5321.099999997765,"",,,,,,,,,,,0,,,,,
html-keyboard-response,208,301750,null,"",null,,,,,,,,,,,,,,,
math-period,209,304642,5570.300000000745,"",,,,,,,,,,,2,,,,,
html-keyboard-response,210,304749,null,"",null,,,,,,,,,,,,,,,
math-period,211,306330,2936.0000000037253,"",,,,,,,,,,,1,,,,,
html-keyboard-response,212,306433,null,"",null,,,,,,,,,,,,,,,
math-period,213,308684,2175.60000000149,"",,,,,,,,,,,4,,,,,
html-keyboard-response,214,309687,null,"Recall Period!",null,,,,,,,,,,,,,,,
call-function,215,309688,,"",,,,,,,,,,,,,,,,
html-keyboard-response,216,309801,null,"",null,,,,,,,,,,,,,,,
recall-period,217,312518,12201.19999999553,"",,,,,,,,,,,Crib,,,,,
html-keyboard-response,218,312622,null,"",null,,,,,,,,,,,,,,,
recall-period,219,314514,5234.099999990314,"",,,,,,,,,,,Crab,,,,,
html-keyboard-response,220,314627,null,"",null,,,,,,,,,,,,,,,
recall-period,221,320789,30966.499999996275,"",,,,,,,,,,,Baby,,,,,
html-keyboard-response,222,320898,null,"",null,,,,,,,,,,,,,,,
recall-period,223,327012,46815.899999987334,"",,,,,,,,,,,Captive,,,,,
html-keyboard-response,224,327121,null,"",null,,,,,,,,,,,,,,,
recall-period,225,384691,null,"",,,,,,,,,,,,,,,,
html-keyboard-response,226,385194,null,"Time's Up!",null,,,,,,,,,,,,,,,
html-keyboard-response,227,387552,2356.300000000745,"<p> Good job! You have responded correctly to 100% of the trials. </p>
                      <p>Be sure to only press the spacebar if you see a red square, and please keep your accuracy above 80%.</p>
                      <p> Press any key to continue the experiment. </p>",32,,,,,,,,,,,,,,,
html-keyboard-response,228,388686,1133.300000000745,"<div style=""font-size:48px;"">Press any key to begin list 2 of 16 </div>",32,,,,,,,,,,,,,,,
html-keyboard-response,229,391203,null,"<div style=""font-size:60px;"">+</div>",null,,,,,,,,,,,,,,,
html-keyboard-response,230,391407,null,"<div style=""font-size:42px;"">HOSTAGE</div><img id = ""stim"" ><div class = green_square id = topsquare></div>",null,encoding,word_square,,,0,topsquare,none,true,,,HOSTAGE,1,,,
html-keyboard-response,231,391714,null,"<div style=""font-size:42px;"">HOSTAGE</div>",null,,word,HOSTAGE,,,,,,,,,,,,
html-keyboard-response,232,393230,null,"",null,,word,HOSTAGE,,,,,,,,,,,,
html-keyboard-response,233,393449,null,"<div style=""font-size:42px;"">PEDAL</div><img id = ""stim"" ><div class = green_square id = bottomsquare></div>",null,encoding,word_square,,,0,bottomsquare,none,true,,,PEDAL,1,,,
html-keyboard-response,234,393767,null,"<div style=""font-size:42px;"">PEDAL</div>",null,,word,PEDAL,,,,,,,,,,,,
html-keyboard-response,235,395278,null,"",null,,word,PEDAL,,,,,,,,,,,,
html-keyboard-response,236,395485,null,"<div style=""font-size:42px;"">GAZELLE</div><img id = ""stim"" ><div class = red_square id = bottomsquare></div>",null,encoding,word_square,,,1,bottomsquare,32,true,,,GAZELLE,1,,,
html-keyboard-response,237,395802,243,"<div style=""font-size:42px;"">GAZELLE</div>",32,,word,GAZELLE,,,,,,,,,,,,
html-keyboard-response,238,397312,null,"",null,,word,GAZELLE,,,,,,,,,,,,
html-keyboard-response,239,397518,null,"<div style=""font-size:42px;"">STREAM</div><img id = ""stim"" ><div class = green_square id = topsquare></div>",null,encoding,word_square,,,0,topsquare,none,true,,,STREAM,1,,,
html-keyboard-response,240,397835,null,"<div style=""font-size:42px;"">STREAM</div>",null,,word,STREAM,,,,,,,,,,,,
html-keyboard-response,241,399342,null,"",null,,word,STREAM,,,,,,,,,,,,
html-keyboard-response,242,399546,null,"<div style=""font-size:42px;"">RIVER</div><img id = ""stim"" ><div class = green_square id = bottomsquare></div>",null,encoding,word_square,,,0,bottomsquare,none,true,,,RIVER,1,,,
html-keyboard-response,243,399859,null,"<div style=""font-size:42px;"">RIVER</div>",null,,word,RIVER,,,,,,,,,,,,
html-keyboard-response,244,401374,null,"",null,,word,RIVER,,,,,,,,,,,,
html-keyboard-response,245,401578,null,"<div style=""font-size:42px;"">CABOOSE</div><img id = ""stim"" ><div class = red_square id = topsquare></div>",null,encoding,word_square,,,1,topsquare,32,true,,,CABOOSE,1,,,
html-keyboard-response,246,401882,298.80000000074506,"<div style=""font-size:42px;"">CABOOSE</div>",32,,word,CABOOSE,,,,,,,,,,,,
html-keyboard-response,247,403390,null,"",null,,word,CABOOSE,,,,,,,,,,,,
html-keyboard-response,248,403594,null,"<div style=""font-size:42px;"">CLOSET</div><img id = ""stim"" ><div class = green_square id = topsquare></div>",null,encoding,word_square,,,0,topsquare,none,true,,,CLOSET,1,,,
html-keyboard-response,249,403909,null,"<div style=""font-size:42px;"">CLOSET</div>",null,,word,CLOSET,,,,,,,,,,,,
html-keyboard-response,250,405421,null,"",null,,word,CLOSET,,,,,,,,,,,,
html-keyboard-response,251,405632,null,"<div style=""font-size:42px;"">STONE</div><img id = ""stim"" ><div class = green_square id = bottomsquare></div>",null,encoding,word_square,,,0,bottomsquare,none,true,,,STONE,1,,,
html-keyboard-response,252,405941,null,"<div style=""font-size:42px;"">STONE</div>",null,,word,STONE,,,,,,,,,,,,
html-keyboard-response,253,407445,null,"",null,,word,STONE,,,,,,,,,,,,
html-keyboard-response,254,407652,null,"<div style=""font-size:42px;"">KIDNEY</div><img id = ""stim"" ><div class = red_square id = bottomsquare></div>",null,encoding,word_square,,,1,bottomsquare,32,true,,,KIDNEY,1,,,
html-keyboard-response,255,407954,299.9000000022352,"<div style=""font-size:42px;"">KIDNEY</div>",32,,word,KIDNEY,,,,,,,,,,,,
html-keyboard-response,256,409468,null,"",null,,word,KIDNEY,,,,,,,,,,,,
html-keyboard-response,257,409673,null,"<div style=""font-size:42px;"">POSSUM</div><img id = ""stim"" ><div class = red_square id = topsquare></div>",null,encoding,word_square,,,1,topsquare,32,true,,,POSSUM,1,,,
html-keyboard-response,258,409988,null,"<div style=""font-size:42px;"">POSSUM</div>",null,,word,POSSUM,,,,,,,,,,,,
html-keyboard-response,259,411499,8.5,"",32,,word,POSSUM,,,,,,,,,,,,
html-keyboard-response,260,411701,null,"<div style=""font-size:42px;"">STOCKING</div><img id = ""stim"" ><div class = red_square id = bottomsquare></div>",null,encoding,word_square,,,1,bottomsquare,32,true,,,STOCKING,1,,,
html-keyboard-response,261,412007,211.70000000298023,"<div style=""font-size:42px;"">STOCKING</div>",32,,word,STOCKING,,,,,,,,,,,,
html-keyboard-response,262,413509,null,"",null,,word,STOCKING,,,,,,,,,,,,
html-keyboard-response,263,413712,null,"<div style=""font-size:42px;"">EGYPT</div><img id = ""stim"" ><div class = green_square id = topsquare></div>",null,encoding,word_square,,,0,topsquare,none,true,,,EGYPT,1,,,
html-keyboard-response,264,414014,null,"<div style=""font-size:42px;"">EGYPT</div>",null,,word,EGYPT,,,,,,,,,,,,
html-keyboard-response,265,415520,null,"",null,,word,EGYPT,,,,,,,,,,,,
html-keyboard-response,266,415728,null,"<div style=""font-size:42px;"">COUNTRY</div><img id = ""stim"" ><div class = red_square id = topsquare></div>",null,encoding,word_square,,,1,topsquare,32,true,,,COUNTRY,1,,,
html-keyboard-response,267,416034,304.79999999701977,"<div style=""font-size:42px;"">COUNTRY</div>",32,,word,COUNTRY,,,,,,,,,,,,
html-keyboard-response,268,417549,null,"",null,,word,COUNTRY,,,,,,,,,,,,
html-keyboard-response,269,417754,null,"<div style=""font-size:42px;"">DAISY</div><img id = ""stim"" ><div class = green_square id = bottomsquare></div>",null,encoding,word_square,,,0,bottomsquare,none,true,,,DAISY,1,,,
html-keyboard-response,270,418068,null,"<div style=""font-size:42px;"">DAISY</div>",null,,word,DAISY,,,,,,,,,,,,
html-keyboard-response,271,419581,null,"",null,,word,DAISY,,,,,,,,,,,,
html-keyboard-response,272,419785,null,"<div style=""font-size:42px;"">PRIMATE</div><img id = ""stim"" ><div class = red_square id = bottomsquare></div>",null,encoding,word_square,,,1,bottomsquare,32,true,,,PRIMATE,1,,,
html-keyboard-response,273,420089,222.09999999776483,"<div style=""font-size:42px;"">PRIMATE</div>",32,,word,PRIMATE,,,,,,,,,,,,
html-keyboard-response,274,421597,null,"",null,,word,PRIMATE,,,,,,,,,,,,
html-keyboard-response,275,421802,null,"<div style=""font-size:42px;"">GIRL</div><img id = ""stim"" ><div class = red_square id = topsquare></div>",null,encoding,word_square,,,1,topsquare,32,true,,,GIRL,1,,,
html-keyboard-response,276,422118,258.1000000014901,"<div style=""font-size:42px;"">GIRL</div>",32,,word,GIRL,,,,,,,,,,,,
html-keyboard-response,277,423628,null,"",null,,word,GIRL,,,,,,,,,,,,
call-function,278,423628,,"",,,,,,,,,,,,,,,,
html-keyboard-response,279,423730,null,"",null,,,,,,,,,,,,,,,
math-period,280,427640,6086,"",,,,,,,,,,,2,,,,,
html-keyboard-response,281,427748,null,"",null,,,,,,,,,,,,,,,
math-period,282,430121,4425.79999999702,"",,,,,,,,,,,5,,,,,
html-keyboard-response,283,430224,null,"",null,,,,,,,,,,,,,,,
math-period,284,432448,4290.29999999702,"",,,,,,,,,,,3,,,,,
html-keyboard-response,285,432563,null,"",null,,,,,,,,,,,,,,,
math-period,286,435092,4896.10000000149,"",,,,,,,,,,,0,,,,,
html-keyboard-response,287,435209,null,"",null,,,,,,,,,,,,,,,
math-period,288,437212,3871.10000000149,"",,,,,,,,,,,5,,,,,
html-keyboard-response,289,437321,null,"",null,,,,,,,,,,,,,,,
math-period,290,438961,3092.10000000149,"",,,,,,,,,,,4,,,,,
html-keyboard-response,291,439065,null,"",null,,,,,,,,,,,,,,,
math-period,292,444260,10009.39999999851,"",,,,,,,,,,,2,,,,,
html-keyboard-response,293,444363,null,"",null,,,,,,,,,,,,,,,
math-period,294,445243,1637.8999999985099,"",,,,,,,,,,,2,,,,,
html-keyboard-response,295,445352,null,"",null,,,,,,,,,,,,,,,
math-period,296,446815,2811.900000002235,"",,,,,,,,,,,3,,,,,
html-keyboard-response,297,446924,null,"",null,,,,,,,,,,,,,,,
math-period,298,447639,null,"",,,,,,,,,,,,,,,,
html-keyboard-response,299,448646,null,"Recall Period!",null,,,,,,,,,,,,,,,
call-function,300,448647,,"",,,,,,,,,,,,,,,,
html-keyboard-response,301,448749,null,"",null,,,,,,,,,,,,,,,
recall-period,302,451224,9305.199999991804,"",,,,,,,,,,,Girl,,,,,
html-keyboard-response,303,451330,null,"",null,,,,,,,,,,,,,,,
recall-period,304,460707,74387.90000001341,"",,,,,,,,,,,Egypt,,,,,
html-keyboard-response,305,460808,null,"",null,,,,,,,,,,,,,,,
recall-period,306,462187,6073.10000000149,"",,,,,,,,,,,River,,,,,
html-keyboard-response,307,462301,null,"",null,,,,,,,,,,,,,,,
recall-period,308,464283,11081.099999986589,"",,,,,,,,,,,Primate,,,,,
html-keyboard-response,309,464386,null,"",null,,,,,,,,,,,,,,,
recall-period,310,466615,8658.300000011921,"",,,,,,,,,,,Hostage,,,,,
html-keyboard-response,311,466720,null,"",null,,,,,,,,,,,,,,,
recall-period,312,492239,194081.1000000015,"",,,,,,,,,,,Possum,,,,,
html-keyboard-response,313,492348,null,"",null,,,,,,,,,,,,,,,
recall-period,314,523659,null,"",,,,,,,,,,,,,,,,
html-keyboard-response,315,524170,null,"Time's Up!",null,,,,,,,,,,,,,,,
html-keyboard-response,316,526394,2222.099999997765,"<p> Good job! You have responded correctly to 100% of the trials. </p>
                      <p>Be sure to only press the spacebar if you see a red square, and please keep your accuracy above 80%.</p>
                      <p> Press any key to continue the experiment. </p>",32,,,,,,,,,,,,,,,
html-keyboard-response,317,529073,2678,"<div style=""font-size:48px;"">Press any key to begin list 3 of 16 </div>",32,,,,,,,,,,,,,,,
html-keyboard-response,318,531591,null,"<div style=""font-size:60px;"">+</div>",null,,,,,,,,,,,,,,,
html-keyboard-response,319,531796,null,"<div style=""font-size:42px;"">RADISH</div><img id = ""stim"" ><div class = green_square id = bottomsquare></div>",null,encoding,word_square,,,0,bottomsquare,none,true,,,RADISH,2,,,
html-keyboard-response,320,532098,null,"<div style=""font-size:42px;"">RADISH</div>",null,,word,RADISH,,,,,,,,,,,,
html-keyboard-response,321,533615,null,"",null,,word,RADISH,,,,,,,,,,,,
html-keyboard-response,322,533826,null,"<div style=""font-size:42px;"">SICKLE</div><img id = ""stim"" ><div class = green_square id = topsquare></div>",null,encoding,word_square,,,0,topsquare,none,true,,,SICKLE,2,,,
html-keyboard-response,323,534135,null,"<div style=""font-size:42px;"">SICKLE</div>",null,,word,SICKLE,,,,,,,,,,,,
html-keyboard-response,324,535647,null,"",null,,word,SICKLE,,,,,,,,,,,,
html-keyboard-response,325,535857,null,"<div style=""font-size:42px;"">BALLOON</div><img id = ""stim"" ><div class = red_square id = topsquare></div>",null,encoding,word_square,,,1,topsquare,32,true,,,BALLOON,2,,,
html-keyboard-response,326,536171,222.10000000149012,"<div style=""font-size:42px;"">BALLOON</div>",32,,word,BALLOON,,,,,,,,,,,,
html-keyboard-response,327,537690,null,"",null,,word,BALLOON,,,,,,,,,,,,
html-keyboard-response,328,537893,null,"<div style=""font-size:42px;"">FROG</div><img id = ""stim"" ><div class = green_square id = bottomsquare></div>",null,encoding,word_square,,,0,bottomsquare,none,true,,,FROG,2,,,
html-keyboard-response,329,538207,null,"<div style=""font-size:42px;"">FROG</div>",null,,word,FROG,,,,,,,,,,,,
html-keyboard-response,330,539718,null,"",null,,word,FROG,,,,,,,,,,,,
html-keyboard-response,331,539924,null,"<div style=""font-size:42px;"">ARM</div><img id = ""stim"" ><div class = red_square id = bottomsquare></div>",null,encoding,word_square,,,1,bottomsquare,32,true,,,ARM,2,,,
html-keyboard-response,332,540232,275.5,"<div style=""font-size:42px;"">ARM</div>",32,,word,ARM,,,,,,,,,,,,
html-keyboard-response,333,541741,null,"",null,,word,ARM,,,,,,,,,,,,
html-keyboard-response,334,541946,null,"<div style=""font-size:42px;"">TULIP</div><img id = ""stim"" ><div class = green_square id = topsquare></div>",null,encoding,word_square,,,0,topsquare,none,true,,,TULIP,2,,,
html-keyboard-response,335,542264,null,"<div style=""font-size:42px;"">TULIP</div>",null,,word,TULIP,,,,,,,,,,,,
html-keyboard-response,336,543777,null,"",null,,word,TULIP,,,,,,,,,,,,
html-keyboard-response,337,543981,null,"<div style=""font-size:42px;"">CREVICE</div><img id = ""stim"" ><div class = green_square id = bottomsquare></div>",null,encoding,word_square,,,0,bottomsquare,none,true,,,CREVICE,2,,,
html-keyboard-response,338,544295,null,"<div style=""font-size:42px;"">CREVICE</div>",null,,word,CREVICE,,,,,,,,,,,,
html-keyboard-response,339,545812,null,"",null,,word,CREVICE,,,,,,,,,,,,
html-keyboard-response,340,546017,null,"<div style=""font-size:42px;"">SHIRT</div><img id = ""stim"" ><div class = green_square id = topsquare></div>",null,encoding,word_square,,,0,topsquare,none,true,,,SHIRT,2,,,
html-keyboard-response,341,546326,null,"<div style=""font-size:42px;"">SHIRT</div>",null,,word,SHIRT,,,,,,,,,,,,
html-keyboard-response,342,547842,null,"",null,,word,SHIRT,,,,,,,,,,,,
html-keyboard-response,343,548062,null,"<div style=""font-size:42px;"">POSTAGE</div><img id = ""stim"" ><div class = red_square id = topsquare></div>",null,encoding,word_square,,,1,topsquare,32,true,,,POSTAGE,2,,,
html-keyboard-response,344,548368,208.89999999850988,"<div style=""font-size:42px;"">POSTAGE</div>",32,,word,POSTAGE,,,,,,,,,,,,
html-keyboard-response,345,549882,null,"",null,,word,POSTAGE,,,,,,,,,,,,
html-keyboard-response,346,550086,null,"<div style=""font-size:42px;"">STICKER</div><img id = ""stim"" ><div class = red_square id = bottomsquare></div>",null,encoding,word_square,,,1,bottomsquare,32,true,,,STICKER,2,,,
html-keyboard-response,347,550388,null,"<div style=""font-size:42px;"">STICKER</div>",null,,word,STICKER,,,,,,,,,,,,
html-keyboard-response,348,551905,66.69999999925494,"",32,,word,STICKER,,,,,,,,,,,,
html-keyboard-response,349,552110,null,"<div style=""font-size:42px;"">COTTAGE</div><img id = ""stim"" ><div class = green_square id = bottomsquare></div>",null,encoding,word_square,,,0,bottomsquare,none,true,,,COTTAGE,2,,,
html-keyboard-response,350,552428,null,"<div style=""font-size:42px;"">COTTAGE</div>",null,,word,COTTAGE,,,,,,,,,,,,
html-keyboard-response,351,553935,null,"",null,,word,COTTAGE,,,,,,,,,,,,
html-keyboard-response,352,554138,null,"<div style=""font-size:42px;"">TURNIP</div><img id = ""stim"" ><div class = red_square id = topsquare></div>",null,encoding,word_square,,,1,topsquare,32,true,,,TURNIP,2,,,
html-keyboard-response,353,554444,196.69999999925494,"<div style=""font-size:42px;"">TURNIP</div>",32,,word,TURNIP,,,,,,,,,,,,
html-keyboard-response,354,555953,null,"",null,,word,TURNIP,,,,,,,,,,,,
html-keyboard-response,355,556158,null,"<div style=""font-size:42px;"">DRIVER</div><img id = ""stim"" ><div class = red_square id = bottomsquare></div>",null,encoding,word_square,,,1,bottomsquare,32,true,,,DRIVER,2,,,
html-keyboard-response,356,556473,224.09999999776483,"<div style=""font-size:42px;"">DRIVER</div>",32,,word,DRIVER,,,,,,,,,,,,
html-keyboard-response,357,557984,null,"",null,,word,DRIVER,,,,,,,,,,,,
html-keyboard-response,358,558190,null,"<div style=""font-size:42px;"">TAXI</div><img id = ""stim"" ><div class = green_square id = topsquare></div>",null,encoding,word_square,,,0,topsquare,none,true,,,TAXI,2,,,
html-keyboard-response,359,558503,null,"<div style=""font-size:42px;"">TAXI</div>",null,,word,TAXI,,,,,,,,,,,,
html-keyboard-response,360,560015,null,"",null,,word,TAXI,,,,,,,,,,,,
html-keyboard-response,361,560220,null,"<div style=""font-size:42px;"">SKILLET</div><img id = ""stim"" ><div class = red_square id = topsquare></div>",null,encoding,word_square,,,1,topsquare,32,true,,,SKILLET,2,,,
html-keyboard-response,362,560536,194.19999999925494,"<div style=""font-size:42px;"">SKILLET</div>",32,,word,SKILLET,,,,,,,,,,,,
html-keyboard-response,363,562048,null,"",null,,word,SKILLET,,,,,,,,,,,,
html-keyboard-response,364,562260,null,"<div style=""font-size:42px;"">PLANET</div><img id = ""stim"" ><div class = red_square id = bottomsquare></div>",null,encoding,word_square,,,1,bottomsquare,32,true,,,PLANET,2,,,
html-keyboard-response,365,562564,302.6000000014901,"<div style=""font-size:42px;"">PLANET</div>",32,,word,PLANET,,,,,,,,,,,,
html-keyboard-response,366,564068,null,"",null,,word,PLANET,,,,,,,,,,,,
call-function,367,564069,,"",,,,,,,,,,,,,,,,
html-keyboard-response,368,564178,null,"",null,,,,,,,,,,,,,,,
math-period,369,566563,4428.199999999255,"",,,,,,,,,,,2,,,,,
html-keyboard-response,370,566671,null,"",null,,,,,,,,,,,,,,,
math-period,371,568834,4182.39999999851,"",,,,,,,,,,,1,,,,,
html-keyboard-response,372,568941,null,"",null,,,,,,,,,,,,,,,
math-period,373,570971,3954.2000000029802,"",,,,,,,,,,,4,,,,,
html-keyboard-response,374,571073,null,"",null,,,,,,,,,,,,,,,
math-period,375,573048,3815.60000000149,"",,,,,,,,,,,1,,,,,
html-keyboard-response,376,573156,null,"",null,,,,,,,,,,,,,,,
math-period,377,574759,3074.599999997765,"",,,,,,,,,,,1,,,,,
html-keyboard-response,378,574867,null,"",null,,,,,,,,,,,,,,,
math-period,379,575626,1392.5000000037253,"",,,,,,,,,,,1,,,,,
html-keyboard-response,380,575730,null,"",null,,,,,,,,,,,,,,,
math-period,381,577410,3226.1999999955297,"",,,,,,,,,,,1,,,,,
html-keyboard-response,382,577513,null,"",null,,,,,,,,,,,,,,,
math-period,383,579452,3729.7000000029802,"",,,,,,,,,,,4,,,,,
html-keyboard-response,384,579557,null,"",null,,,,,,,,,,,,,,,
math-period,385,580758,2256.10000000149,"",,,,,,,,,,,3,,,,,
html-keyboard-response,386,580860,null,"",null,,,,,,,,,,,,,,,
math-period,387,582590,3337.699999999255,"",,,,,,,,,,,4,,,,,
html-keyboard-response,388,582701,null,"",null,,,,,,,,,,,,,,,
math-period,389,583946,2383.699999999255,"",,,,,,,,,,,3,,,,,
html-keyboard-response,390,584048,null,"",null,,,,,,,,,,,,,,,
math-period,391,587014,5733.39999999851,"",,,,,,,,,,,0,,,,,
html-keyboard-response,392,587117,null,"",null,,,,,,,,,,,,,,,
math-period,393,588081,null,"",,,,,,,,,,,,,,,,
html-keyboard-response,394,589096,null,"Recall Period!",null,,,,,,,,,,,,,,,
call-function,395,589096,,"",,,,,,,,,,,,,,,,
html-keyboard-response,396,589197,null,"",null,,,,,,,,,,,,,,,
recall-period,397,592770,20859.599999990314,"",,,,,,,,,,,Planet,,,,,
html-keyboard-response,398,592875,null,"",null,,,,,,,,,,,,,,,
recall-period,399,597683,32213.4999999851,"",,,,,,,,,,,Crevice,,,,,
html-keyboard-response,400,597786,null,"",null,,,,,,,,,,,,,,,
recall-period,401,602274,30291.300000008196,"",,,,,,,,,,,Tulip,,,,,
html-keyboard-response,402,602382,null,"",null,,,,,,,,,,,,,,,
recall-period,403,605878,20355.700000006706,"",,,,,,,,,,,Shirt,,,,,
html-keyboard-response,404,605990,null,"",null,,,,,,,,,,,,,,,
recall-period,405,608270,15095.20000001043,"",,,,,,,,,,,Cottage,,,,,
html-keyboard-response,406,608378,null,"",null,,,,,,,,,,,,,,,
recall-period,407,664110,null,"",,,,,,,,,,,,,,,,
html-keyboard-response,408,664619,null,"Time's Up!",null,,,,,,,,,,,,,,,
html-keyboard-response,409,667139,2518.89999999851,"<p> Good job! You have responded correctly to 100% of the trials. </p>
                      <p>Be sure to only press the spacebar if you see a red square, and please keep your accuracy above 80%.</p>
                      <p> Press any key to continue the experiment. </p>",32,,,,,,,,,,,,,,,
html-keyboard-response,410,667907,766.6000000014901,"<div style=""font-size:48px;"">Press any key to begin list 4 of 16 </div>",32,,,,,,,,,,,,,,,
html-keyboard-response,411,670424,null,"<div style=""font-size:60px;"">+</div>",null,,,,,,,,,,,,,,,
html-keyboard-response,412,670636,null,"<div style=""font-size:42px;"">TURKEY</div><img id = ""stim"" ><div class = red_square id = bottomsquare></div>",null,encoding,word_square,,,1,bottomsquare,32,true,,,TURKEY,3,,,
html-keyboard-response,413,670948,209.59999999776483,"<div style=""font-size:42px;"">TURKEY</div>",32,,word,TURKEY,,,,,,,,,,,,
html-keyboard-response,414,672455,null,"",null,,word,TURKEY,,,,,,,,,,,,
html-keyboard-response,415,672672,null,"<div style=""font-size:42px;"">MESSAGE</div><img id = ""stim"" ><div class = red_square id = topsquare></div>",null,encoding,word_square,,,1,topsquare,32,true,,,MESSAGE,3,,,
html-keyboard-response,416,672980,201.60000000149012,"<div style=""font-size:42px;"">MESSAGE</div>",32,,word,MESSAGE,,,,,,,,,,,,
html-keyboard-response,417,674484,null,"",null,,word,MESSAGE,,,,,,,,,,,,
html-keyboard-response,418,674693,null,"<div style=""font-size:42px;"">LAKE</div><img id = ""stim"" ><div class = green_square id = topsquare></div>",null,encoding,word_square,,,0,topsquare,none,true,,,LAKE,3,,,
html-keyboard-response,419,675005,null,"<div style=""font-size:42px;"">LAKE</div>",null,,word,LAKE,,,,,,,,,,,,
html-keyboard-response,420,676507,null,"",null,,word,LAKE,,,,,,,,,,,,
html-keyboard-response,421,676713,null,"<div style=""font-size:42px;"">SUBURB</div><img id = ""stim"" ><div class = red_square id = bottomsquare></div>",null,encoding,word_square,,,1,bottomsquare,32,true,,,SUBURB,3,,,
html-keyboard-response,422,677028,165.80000000074506,"<div style=""font-size:42px;"">SUBURB</div>",32,,word,SUBURB,,,,,,,,,,,,
html-keyboard-response,423,678546,null,"",null,,word,SUBURB,,,,,,,,,,,,
html-keyboard-response,424,678751,null,"<div style=""font-size:42px;"">MATCH</div><img id = ""stim"" ><div class = red_square id = topsquare></div>",null,encoding,word_square,,,1,topsquare,32,true,,,MATCH,3,,,
html-keyboard-response,425,679065,271,"<div style=""font-size:42px;"">MATCH</div>",32,,word,MATCH,,,,,,,,,,,,
html-keyboard-response,426,680577,null,"",null,,word,MATCH,,,,,,,,,,,,
html-keyboard-response,427,680782,null,"<div style=""font-size:42px;"">LIGHTNING</div><img id = ""stim"" ><div class = green_square id = bottomsquare></div>",null,encoding,word_square,,,0,bottomsquare,none,true,,,LIGHTNING,3,,,
html-keyboard-response,428,681088,null,"<div style=""font-size:42px;"">LIGHTNING</div>",null,,word,LIGHTNING,,,,,,,,,,,,
html-keyboard-response,429,682603,null,"",null,,word,LIGHTNING,,,,,,,,,,,,
html-keyboard-response,430,682808,null,"<div style=""font-size:42px;"">FINGER</div><img id = ""stim"" ><div class = red_square id = bottomsquare></div>",null,encoding,word_square,,,1,bottomsquare,32,true,,,FINGER,3,,,
html-keyboard-response,431,683123,150.10000000149012,"<div style=""font-size:42px;"">FINGER</div>",32,,word,FINGER,,,,,,,,,,,,
html-keyboard-response,432,684634,null,"",null,,word,FINGER,,,,,,,,,,,,
html-keyboard-response,433,684837,null,"<div style=""font-size:42px;"">VAMPIRE</div><img id = ""stim"" ><div class = red_square id = topsquare></div>",null,encoding,word_square,,,1,topsquare,32,true,,,VAMPIRE,3,,,
html-keyboard-response,434,685139,192.10000000149012,"<div style=""font-size:42px;"">VAMPIRE</div>",32,,word,VAMPIRE,,,,,,,,,,,,
html-keyboard-response,435,686656,null,"",null,,word,VAMPIRE,,,,,,,,,,,,
html-keyboard-response,436,686862,null,"<div style=""font-size:42px;"">BANJO</div><img id = ""stim"" ><div class = green_square id = topsquare></div>",null,encoding,word_square,,,0,topsquare,none,true,,,BANJO,3,,,
html-keyboard-response,437,687177,null,"<div style=""font-size:42px;"">BANJO</div>",null,,word,BANJO,,,,,,,,,,,,
html-keyboard-response,438,688679,null,"",null,,word,BANJO,,,,,,,,,,,,
html-keyboard-response,439,688884,null,"<div style=""font-size:42px;"">WHISTLE</div><img id = ""stim"" ><div class = green_square id = bottomsquare></div>",null,encoding,word_square,,,0,bottomsquare,none,true,,,WHISTLE,3,,,
html-keyboard-response,440,689197,null,"<div style=""font-size:42px;"">WHISTLE</div>",null,,word,WHISTLE,,,,,,,,,,,,
html-keyboard-response,441,690700,null,"",null,,word,WHISTLE,,,,,,,,,,,,
html-keyboard-response,442,690904,null,"<div style=""font-size:42px;"">QUEEN</div><img id = ""stim"" ><div class = green_square id = topsquare></div>",null,encoding,word_square,,,0,topsquare,none,true,,,QUEEN,3,,,
html-keyboard-response,443,691209,null,"<div style=""font-size:42px;"">QUEEN</div>",null,,word,QUEEN,,,,,,,,,,,,
html-keyboard-response,444,692723,null,"",null,,word,QUEEN,,,,,,,,,,,,
html-keyboard-response,445,692927,null,"<div style=""font-size:42px;"">PRINCESS</div><img id = ""stim"" ><div class = red_square id = bottomsquare></div>",null,encoding,word_square,,,1,bottomsquare,32,true,,,PRINCESS,3,,,
html-keyboard-response,446,693240,138.60000000149012,"<div style=""font-size:42px;"">PRINCESS</div>",32,,word,PRINCESS,,,,,,,,,,,,
html-keyboard-response,447,694742,null,"",null,,word,PRINCESS,,,,,,,,,,,,
html-keyboard-response,448,694948,null,"<div style=""font-size:42px;"">DRIVEWAY</div><img id = ""stim"" ><div class = green_square id = bottomsquare></div>",null,encoding,word_square,,,0,bottomsquare,none,true,,,DRIVEWAY,3,,,
html-keyboard-response,449,695262,null,"<div style=""font-size:42px;"">DRIVEWAY</div>",null,,word,DRIVEWAY,,,,,,,,,,,,
html-keyboard-response,450,696769,null,"",null,,word,DRIVEWAY,,,,,,,,,,,,
html-keyboard-response,451,696974,null,"<div style=""font-size:42px;"">SEAGULL</div><img id = ""stim"" ><div class = red_square id = topsquare></div>",null,encoding,word_square,,,1,topsquare,32,true,,,SEAGULL,3,,,
html-keyboard-response,452,697277,211.39999999850988,"<div style=""font-size:42px;"">SEAGULL</div>",32,,word,SEAGULL,,,,,,,,,,,,
html-keyboard-response,453,698784,null,"",null,,word,SEAGULL,,,,,,,,,,,,
html-keyboard-response,454,698988,null,"<div style=""font-size:42px;"">BLANKET</div><img id = ""stim"" ><div class = green_square id = topsquare></div>",null,encoding,word_square,,,0,topsquare,none,true,,,BLANKET,3,,,
html-keyboard-response,455,699302,null,"<div style=""font-size:42px;"">BLANKET</div>",null,,word,BLANKET,,,,,,,,,,,,
html-keyboard-response,456,700817,null,"",null,,word,BLANKET,,,,,,,,,,,,
html-keyboard-response,457,701023,null,"<div style=""font-size:42px;"">PORCH</div><img id = ""stim"" ><div class = green_square id = bottomsquare></div>",null,encoding,word_square,,,0,bottomsquare,none,true,,,PORCH,3,,,
html-keyboard-response,458,701337,null,"<div style=""font-size:42px;"">PORCH</div>",null,,word,PORCH,,,,,,,,,,,,
html-keyboard-response,459,702846,null,"",null,,word,PORCH,,,,,,,,,,,,
call-function,460,702846,,"",,,,,,,,,,,,,,,,
html-keyboard-response,461,702955,null,"",null,,,,,,,,,,,,,,,
math-period,462,707153,7299.29999999702,"",,,,,,,,,,,1,,,,,
html-keyboard-response,463,707258,null,"",null,,,,,,,,,,,,,,,
math-period,464,708933,3138.5,"",,,,,,,,,,,2,,,,,
html-keyboard-response,465,709037,null,"",null,,,,,,,,,,,,,,,
math-period,466,710317,2449.1999999955297,"",,,,,,,,,,,3,,,,,
html-keyboard-response,467,710423,null,"",null,,,,,,,,,,,,,,,
math-period,468,712493,4010.39999999851,"",,,,,,,,,,,2,,,,,
html-keyboard-response,469,712597,null,"",null,,,,,,,,,,,,,,,
math-period,470,713777,2253.5000000037253,"",,,,,,,,,,,3,,,,,
html-keyboard-response,471,713879,null,"",null,,,,,,,,,,,,,,,
math-period,472,715714,3538.300000000745,"",,,,,,,,,,,2,,,,,
html-keyboard-response,473,715817,null,"",null,,,,,,,,,,,,,,,
math-period,474,716677,1623.4000000022352,"",,,,,,,,,,,2,,,,,
html-keyboard-response,475,716782,null,"",null,,,,,,,,,,,,,,,
math-period,476,719117,4545.199999999255,"",,,,,,,,,,,0,,,,,
html-keyboard-response,477,719219,null,"",null,,,,,,,,,,,,,,,
math-period,478,722078,5587.099999997765,"",,,,,,,,,,,2,,,,,
html-keyboard-response,479,722193,null,"",null,,,,,,,,,,,,,,,
math-period,480,724150,3736.39999999851,"",,,,,,,,,,,5,,,,,
html-keyboard-response,481,724257,null,"",null,,,,,,,,,,,,,,,
math-period,482,725338,2051,"",,,,,,,,,,,3,,,,,
html-keyboard-response,483,725448,null,"",null,,,,,,,,,,,,,,,
math-period,484,726851,null,"",,,,,,,,,,,,,,,,
html-keyboard-response,485,727860,null,"Recall Period!",null,,,,,,,,,,,,,,,
call-function,486,727861,,"",,,,,,,,,,,,,,,,
html-keyboard-response,487,727971,null,"",null,,,,,,,,,,,,,,,
recall-period,488,731297,18088.39999999106,"",,,,,,,,,,,Porch,,,,,
html-keyboard-response,489,731401,null,"",null,,,,,,,,,,,,,,,
recall-period,490,734081,14810.10000000894,"",,,,,,,,,,,Seagull,,,,,
html-keyboard-response,491,734188,null,"",null,,,,,,,,,,,,,,,
recall-period,492,802865,null,"",,,,,,,,,,,,,,,,
html-keyboard-response,493,803374,null,"Time's Up!",null,,,,,,,,,,,,,,,
html-keyboard-response,494,810302,6927.300000000745,"<p> Good job! You have responded correctly to 100% of the trials. </p>
                      <p>Be sure to only press the spacebar if you see a red square, and please keep your accuracy above 80%.</p>
                      <p> Press any key to continue the experiment. </p>",32,,,,,,,,,,,,,,,
html-keyboard-response,495,811058,754.5,"<div style=""font-size:48px;"">Press any key to begin list 5 of 16 </div>",32,,,,,,,,,,,,,,,
html-keyboard-response,496,813566,null,"<div style=""font-size:60px;"">+</div>",null,,,,,,,,,,,,,,,
html-keyboard-response,497,813770,null,"<div style=""font-size:42px;"">SHAMPOO</div><img id = ""stim"" ><div class = red_square id = topsquare></div>",null,encoding,word_square,,,1,topsquare,32,true,,,SHAMPOO,4,,,
html-keyboard-response,498,814077,null,"<div style=""font-size:42px;"">SHAMPOO</div>",null,,word,SHAMPOO,,,,,,,,,,,,
html-keyboard-response,499,815584,43,"",32,,word,SHAMPOO,,,,,,,,,,,,
html-keyboard-response,500,815789,null,"<div style=""font-size:42px;"">FRIES</div><img id = ""stim"" ><div class = red_square id = bottomsquare></div>",null,encoding,word_square,,,1,bottomsquare,32,true,,,FRIES,4,,,
html-keyboard-response,501,816101,204.09999999776483,"<div style=""font-size:42px;"">FRIES</div>",32,,word,FRIES,,,,,,,,,,,,
html-keyboard-response,502,817609,null,"",null,,word,FRIES,,,,,,,,,,,,
html-keyboard-response,503,817814,null,"<div style=""font-size:42px;"">FAUCET</div><img id = ""stim"" ><div class = green_square id = bottomsquare></div>",null,encoding,word_square,,,0,bottomsquare,none,true,,,FAUCET,4,,,
html-keyboard-response,504,818127,null,"<div style=""font-size:42px;"">FAUCET</div>",null,,word,FAUCET,,,,,,,,,,,,
html-keyboard-response,505,819638,null,"",null,,word,FAUCET,,,,,,,,,,,,
html-keyboard-response,506,819840,null,"<div style=""font-size:42px;"">SHARK</div><img id = ""stim"" ><div class = red_square id = topsquare></div>",null,encoding,word_square,,,1,topsquare,32,true,,,SHARK,4,,,
html-keyboard-response,507,820157,260.4000000022352,"<div style=""font-size:42px;"">SHARK</div>",32,,word,SHARK,,,,,,,,,,,,
html-keyboard-response,508,821661,null,"",null,,word,SHARK,,,,,,,,,,,,
html-keyboard-response,509,821868,null,"<div style=""font-size:42px;"">BATHTUB</div><img id = ""stim"" ><div class = red_square id = bottomsquare></div>",null,encoding,word_square,,,1,bottomsquare,32,true,,,BATHTUB,4,,,
html-keyboard-response,510,822171,221.09999999776483,"<div style=""font-size:42px;"">BATHTUB</div>",32,,word,BATHTUB,,,,,,,,,,,,
html-keyboard-response,511,823677,null,"",null,,word,BATHTUB,,,,,,,,,,,,
html-keyboard-response,512,823880,null,"<div style=""font-size:42px;"">SERVANT</div><img id = ""stim"" ><div class = green_square id = topsquare></div>",null,encoding,word_square,,,0,topsquare,none,true,,,SERVANT,4,,,
html-keyboard-response,513,824182,null,"<div style=""font-size:42px;"">SERVANT</div>",null,,word,SERVANT,,,,,,,,,,,,
html-keyboard-response,514,825689,null,"",null,,word,SERVANT,,,,,,,,,,,,
html-keyboard-response,515,825897,null,"<div style=""font-size:42px;"">BLACKBOARD</div><img id = ""stim"" ><div class = red_square id = topsquare></div>",null,encoding,word_square,,,1,topsquare,32,true,,,BLACKBOARD,4,,,
html-keyboard-response,516,826210,296.0999999977648,"<div style=""font-size:42px;"">BLACKBOARD</div>",32,,word,BLACKBOARD,,,,,,,,,,,,
html-keyboard-response,517,827722,null,"",null,,word,BLACKBOARD,,,,,,,,,,,,
html-keyboard-response,518,827934,null,"<div style=""font-size:42px;"">PEOPLE</div><img id = ""stim"" ><div class = green_square id = bottomsquare></div>",null,encoding,word_square,,,0,bottomsquare,none,true,,,PEOPLE,4,,,
html-keyboard-response,519,828251,null,"<div style=""font-size:42px;"">PEOPLE</div>",null,,word,PEOPLE,,,,,,,,,,,,
html-keyboard-response,520,829762,null,"",null,,word,PEOPLE,,,,,,,,,,,,
html-keyboard-response,521,829965,null,"<div style=""font-size:42px;"">HOOK</div><img id = ""stim"" ><div class = green_square id = topsquare></div>",null,encoding,word_square,,,0,topsquare,none,true,,,HOOK,4,,,
html-keyboard-response,522,830281,null,"<div style=""font-size:42px;"">HOOK</div>",null,,word,HOOK,,,,,,,,,,,,
html-keyboard-response,523,831792,null,"",null,,word,HOOK,,,,,,,,,,,,
html-keyboard-response,524,831996,null,"<div style=""font-size:42px;"">TRANSPLANT</div><img id = ""stim"" ><div class = red_square id = bottomsquare></div>",null,encoding,word_square,,,1,bottomsquare,32,true,,,TRANSPLANT,4,,,
html-keyboard-response,525,832306,196.90000000223517,"<div style=""font-size:42px;"">TRANSPLANT</div>",32,,word,TRANSPLANT,,,,,,,,,,,,
html-keyboard-response,526,833812,null,"",null,,word,TRANSPLANT,,,,,,,,,,,,
html-keyboard-response,527,834015,null,"<div style=""font-size:42px;"">DONOR</div><img id = ""stim"" ><div class = green_square id = bottomsquare></div>",null,encoding,word_square,,,0,bottomsquare,none,true,,,DONOR,4,,,
html-keyboard-response,528,834328,null,"<div style=""font-size:42px;"">DONOR</div>",null,,word,DONOR,,,,,,,,,,,,
html-keyboard-response,529,835832,null,"",null,,word,DONOR,,,,,,,,,,,,
html-keyboard-response,530,836035,null,"<div style=""font-size:42px;"">WOMAN</div><img id = ""stim"" ><div class = green_square id = topsquare></div>",null,encoding,word_square,,,0,topsquare,none,true,,,WOMAN,4,,,
html-keyboard-response,531,836353,null,"<div style=""font-size:42px;"">WOMAN</div>",null,,word,WOMAN,,,,,,,,,,,,
html-keyboard-response,532,837859,null,"",null,,word,WOMAN,,,,,,,,,,,,
html-keyboard-response,533,838069,null,"<div style=""font-size:42px;"">WASP</div><img id = ""stim"" ><div class = red_square id = topsquare></div>",null,encoding,word_square,,,1,topsquare,32,true,,,WASP,4,,,
html-keyboard-response,534,838382,null,"<div style=""font-size:42px;"">WASP</div>",null,,word,WASP,,,,,,,,,,,,
html-keyboard-response,535,839889,0.10000000149011612,"",32,,word,WASP,,,,,,,,,,,,
html-keyboard-response,536,840093,null,"<div style=""font-size:42px;"">SPIDER</div><img id = ""stim"" ><div class = green_square id = bottomsquare></div>",null,encoding,word_square,,,0,bottomsquare,none,true,,,SPIDER,4,,,
html-keyboard-response,537,840407,null,"<div style=""font-size:42px;"">SPIDER</div>",null,,word,SPIDER,,,,,,,,,,,,
html-keyboard-response,538,841919,null,"",null,,word,SPIDER,,,,,,,,,,,,
html-keyboard-response,539,842131,null,"<div style=""font-size:42px;"">FEMALE</div><img id = ""stim"" ><div class = green_square id = topsquare></div>",null,encoding,word_square,,,0,topsquare,none,false,,,FEMALE,4,,,
html-keyboard-response,540,842443,null,"<div style=""font-size:42px;"">FEMALE</div>",null,,word,FEMALE,,,,,,,,,,,,
html-keyboard-response,541,843946,168.09999999776483,"",32,,word,FEMALE,,,,,,,,,,,,
html-keyboard-response,542,844154,null,"<div style=""font-size:42px;"">SLIME</div><img id = ""stim"" ><div class = red_square id = bottomsquare></div>",null,encoding,word_square,,,1,bottomsquare,32,true,,,SLIME,4,,,
html-keyboard-response,543,844457,173.19999999925494,"<div style=""font-size:42px;"">SLIME</div>",32,,word,SLIME,,,,,,,,,,,,
html-keyboard-response,544,845961,null,"",null,,word,SLIME,,,,,,,,,,,,
call-function,545,845962,,"",,,,,,,,,,,,,,,,
html-keyboard-response,546,846071,null,"",null,,,,,,,,,,,,,,,
math-period,547,848268,4252.10000000149,"",,,,,,,,,,,3,,,,,
html-keyboard-response,548,848385,null,"",null,,,,,,,,,,,,,,,
math-period,549,852132,7283.499999996275,"",,,,,,,,,,,0,,,,,
html-keyboard-response,550,852235,null,"",null,,,,,,,,,,,,,,,
math-period,551,854048,3403.60000000149,"",,,,,,,,,,,2,,,,,
html-keyboard-response,552,854157,null,"",null,,,,,,,,,,,,,,,
math-period,553,855652,2883.7000000029802,"",,,,,,,,,,,2,,,,,
html-keyboard-response,554,855764,null,"",null,,,,,,,,,,,,,,,
math-period,555,856968,2270.400000002235,"",,,,,,,,,,,3,,,,,
html-keyboard-response,556,857081,null,"",null,,,,,,,,,,,,,,,
math-period,557,859056,3609.800000000745,"",,,,,,,,,,,2,,,,,
html-keyboard-response,558,859171,null,"",null,,,,,,,,,,,,,,,
math-period,559,863435,8422.29999999702,"",,,,,,,,,,,3,,,,,
html-keyboard-response,560,863547,null,"",null,,,,,,,,,,,,,,,
math-period,561,864651,2110.800000000745,"",,,,,,,,,,,3,,,,,
html-keyboard-response,562,864757,null,"",null,,,,,,,,,,,,,,,
math-period,563,866990,4277.69999999553,"",,,,,,,,,,,0,,,,,
html-keyboard-response,564,867103,null,"",null,,,,,,,,,,,,,,,
math-period,565,869147,3898.3000000044703,"",,,,,,,,,,,5,,,,,
html-keyboard-response,566,869252,null,"",null,,,,,,,,,,,,,,,
math-period,567,869969,null,"",,,,,,,,,,,,,,,,
html-keyboard-response,568,870971,null,"Recall Period!",null,,,,,,,,,,,,,,,
call-function,569,870972,,"",,,,,,,,,,,,,,,,
html-keyboard-response,570,871081,null,"",null,,,,,,,,,,,,,,,
recall-period,571,875259,24593.099999997765,"",,,,,,,,,,,Female,,,,,
html-keyboard-response,572,875367,null,"",null,,,,,,,,,,,,,,,
recall-period,573,908251,226373.8999999985,"",,,,,,,,,,,Woman,,,,,
html-keyboard-response,574,908360,null,"",null,,,,,,,,,,,,,,,
recall-period,575,945975,null,"",,,,,,,,,,,,,,,,
html-keyboard-response,576,946481,null,"Time's Up!",null,,,,,,,,,,,,,,,
html-keyboard-response,577,990975,44492.800000000745,"<p> Good job! You have responded correctly to 99% of the trials. </p>
                      <p>Be sure to only press the spacebar if you see a red square, and please keep your accuracy above 80%.</p>
                      <p> Press any key to continue the experiment. </p>",32,,,,,,,,,,,,,,,
html-keyboard-response,578,991590,613.8000000007451,"<div style=""font-size:48px;"">Press any key to begin list 6 of 16 </div>",32,,,,,,,,,,,,,,,
html-keyboard-response,579,994114,null,"<div style=""font-size:60px;"">+</div>",null,,,,,,,,,,,,,,,
html-keyboard-response,580,994322,null,"<div style=""font-size:42px;"">NOMAD</div><img id = ""stim"" ><div class = red_square id = bottomsquare></div>",null,encoding,word_square,,,1,bottomsquare,32,true,,,NOMAD,5,,,
html-keyboard-response,581,994638,222.69999999925494,"<div style=""font-size:42px;"">NOMAD</div>",32,,word,NOMAD,,,,,,,,,,,,
html-keyboard-response,582,996141,null,"",null,,word,NOMAD,,,,,,,,,,,,
html-keyboard-response,583,996346,null,"<div style=""font-size:42px;"">SPRINKLE</div><img id = ""stim"" ><div class = green_square id = topsquare></div>",null,encoding,word_square,,,0,topsquare,none,true,,,SPRINKLE,5,,,
html-keyboard-response,584,996648,null,"<div style=""font-size:42px;"">SPRINKLE</div>",null,,word,SPRINKLE,,,,,,,,,,,,
html-keyboard-response,585,998158,null,"",null,,word,SPRINKLE,,,,,,,,,,,,
html-keyboard-response,586,998377,null,"<div style=""font-size:42px;"">CAMEL</div><img id = ""stim"" ><div class = green_square id = bottomsquare></div>",null,encoding,word_square,,,0,bottomsquare,none,true,,,CAMEL,5,,,
html-keyboard-response,587,998689,null,"<div style=""font-size:42px;"">CAMEL</div>",null,,word,CAMEL,,,,,,,,,,,,
html-keyboard-response,588,1000195,null,"",null,,word,CAMEL,,,,,,,,,,,,
html-keyboard-response,589,1000404,null,"<div style=""font-size:42px;"">COFFIN</div><img id = ""stim"" ><div class = red_square id = topsquare></div>",null,encoding,word_square,,,1,topsquare,32,true,,,COFFIN,5,,,
html-keyboard-response,590,1000720,null,"<div style=""font-size:42px;"">COFFIN</div>",null,,word,COFFIN,,,,,,,,,,,,
html-keyboard-response,591,1002233,8.399999998509884,"",32,,word,COFFIN,,,,,,,,,,,,
html-keyboard-response,592,1002438,null,"<div style=""font-size:42px;"">HOOD</div><img id = ""stim"" ><div class = green_square id = topsquare></div>",null,encoding,word_square,,,0,topsquare,none,true,,,HOOD,5,,,
html-keyboard-response,593,1002751,null,"<div style=""font-size:42px;"">HOOD</div>",null,,word,HOOD,,,,,,,,,,,,
html-keyboard-response,594,1004265,null,"",null,,word,HOOD,,,,,,,,,,,,
html-keyboard-response,595,1004470,null,"<div style=""font-size:42px;"">BANDAGE</div><img id = ""stim"" ><div class = green_square id = bottomsquare></div>",null,encoding,word_square,,,0,bottomsquare,none,true,,,BANDAGE,5,,,
html-keyboard-response,596,1004776,null,"<div style=""font-size:42px;"">BANDAGE</div>",null,,word,BANDAGE,,,,,,,,,,,,
html-keyboard-response,597,1006284,null,"",null,,word,BANDAGE,,,,,,,,,,,,
html-keyboard-response,598,1006496,null,"<div style=""font-size:42px;"">NEPTUNE</div><img id = ""stim"" ><div class = red_square id = bottomsquare></div>",null,encoding,word_square,,,1,bottomsquare,32,true,,,NEPTUNE,5,,,
html-keyboard-response,599,1006798,188.80000000074506,"<div style=""font-size:42px;"">NEPTUNE</div>",32,,word,NEPTUNE,,,,,,,,,,,,
html-keyboard-response,600,1008311,null,"",null,,word,NEPTUNE,,,,,,,,,,,,
html-keyboard-response,601,1008530,null,"<div style=""font-size:42px;"">CROOK</div><img id = ""stim"" ><div class = green_square id = topsquare></div>",null,encoding,word_square,,,0,topsquare,none,true,,,CROOK,5,,,
html-keyboard-response,602,1008846,null,"<div style=""font-size:42px;"">CROOK</div>",null,,word,CROOK,,,,,,,,,,,,
html-keyboard-response,603,1010361,null,"",null,,word,CROOK,,,,,,,,,,,,
html-keyboard-response,604,1010573,null,"<div style=""font-size:42px;"">CARROT</div><img id = ""stim"" ><div class = green_square id = bottomsquare></div>",null,encoding,word_square,,,0,bottomsquare,none,true,,,CARROT,5,,,
html-keyboard-response,605,1010889,null,"<div style=""font-size:42px;"">CARROT</div>",null,,word,CARROT,,,,,,,,,,,,
html-keyboard-response,606,1012407,null,"",null,,word,CARROT,,,,,,,,,,,,
html-keyboard-response,607,1012611,null,"<div style=""font-size:42px;"">PISTON</div><img id = ""stim"" ><div class = red_square id = topsquare></div>",null,encoding,word_square,,,1,topsquare,32,true,,,PISTON,5,,,
html-keyboard-response,608,1012926,277.19999999925494,"<div style=""font-size:42px;"">PISTON</div>",32,,word,PISTON,,,,,,,,,,,,
html-keyboard-response,609,1014430,null,"",null,,word,PISTON,,,,,,,,,,,,
html-keyboard-response,610,1014633,null,"<div style=""font-size:42px;"">BEAST</div><img id = ""stim"" ><div class = green_square id = topsquare></div>",null,encoding,word_square,,,0,topsquare,none,true,,,BEAST,5,,,
html-keyboard-response,611,1014951,null,"<div style=""font-size:42px;"">BEAST</div>",null,,word,BEAST,,,,,,,,,,,,
html-keyboard-response,612,1016454,null,"",null,,word,BEAST,,,,,,,,,,,,
html-keyboard-response,613,1016656,null,"<div style=""font-size:42px;"">OMELET</div><img id = ""stim"" ><div class = red_square id = bottomsquare></div>",null,encoding,word_square,,,1,bottomsquare,32,true,,,OMELET,5,,,
html-keyboard-response,614,1016959,251.19999999925494,"<div style=""font-size:42px;"">OMELET</div>",32,,word,OMELET,,,,,,,,,,,,
html-keyboard-response,615,1018473,null,"",null,,word,OMELET,,,,,,,,,,,,
html-keyboard-response,616,1018676,null,"<div style=""font-size:42px;"">YOLK</div><img id = ""stim"" ><div class = red_square id = topsquare></div>",null,encoding,word_square,,,1,topsquare,32,true,,,YOLK,5,,,
html-keyboard-response,617,1018994,null,"<div style=""font-size:42px;"">YOLK</div>",null,,word,YOLK,,,,,,,,,,,,
html-keyboard-response,618,1020508,158.19999999925494,"",32,,word,YOLK,,,,,,,,,,,,
html-keyboard-response,619,1020713,null,"<div style=""font-size:42px;"">BARREL</div><img id = ""stim"" ><div class = green_square id = bottomsquare></div>",null,encoding,word_square,,,0,bottomsquare,none,true,,,BARREL,5,,,
html-keyboard-response,620,1021022,null,"<div style=""font-size:42px;"">BARREL</div>",null,,word,BARREL,,,,,,,,,,,,
html-keyboard-response,621,1022531,null,"",null,,word,BARREL,,,,,,,,,,,,
html-keyboard-response,622,1022734,null,"<div style=""font-size:42px;"">HAMPER</div><img id = ""stim"" ><div class = red_square id = bottomsquare></div>",null,encoding,word_square,,,1,bottomsquare,32,true,,,HAMPER,5,,,
html-keyboard-response,623,1023041,280.80000000074506,"<div style=""font-size:42px;"">HAMPER</div>",32,,word,HAMPER,,,,,,,,,,,,
html-keyboard-response,624,1024546,null,"",null,,word,HAMPER,,,,,,,,,,,,
html-keyboard-response,625,1024750,null,"<div style=""font-size:42px;"">MILDEW</div><img id = ""stim"" ><div class = red_square id = topsquare></div>",null,encoding,word_square,,,1,topsquare,32,true,,,MILDEW,5,,,
html-keyboard-response,626,1025062,310.1000000014901,"<div style=""font-size:42px;"">MILDEW</div>",32,,word,MILDEW,,,,,,,,,,,,
html-keyboard-response,627,1026579,null,"",null,,word,MILDEW,,,,,,,,,,,,
call-function,628,1026580,,"",,,,,,,,,,,,,,,,
html-keyboard-response,629,1026689,null,"",null,,,,,,,,,,,,,,,
math-period,630,1029465,5206.5,"",,,,,,,,,,,1,,,,,
html-keyboard-response,631,1029567,null,"",null,,,,,,,,,,,,,,,
math-period,632,1031509,3493.89999999851,"",,,,,,,,,,,1,,,,,
html-keyboard-response,633,1031617,null,"",null,,,,,,,,,,,,,,,
math-period,634,1033433,3517.4999999962747,"",,,,,,,,,,,4,,,,,
html-keyboard-response,635,1033538,null,"",null,,,,,,,,,,,,,,,
math-period,636,1034937,2687.2999999970198,"",,,,,,,,,,,1,,,,,
html-keyboard-response,637,1035047,null,"",null,,,,,,,,,,,,,,,
math-period,638,1036753,3303.199999999255,"",,,,,,,,,,,2,,,,,
html-keyboard-response,639,1036860,null,"",null,,,,,,,,,,,,,,,
math-period,640,1043628,21595.400000009686,"",,,,,,,,,,,2,,,,,
html-keyboard-response,641,1043741,null,"",null,,,,,,,,,,,,,,,
math-period,642,1044820,2071.199999999255,"",,,,,,,,,,,3,,,,,
html-keyboard-response,643,1044930,null,"",null,,,,,,,,,,,,,,,
math-period,644,1048744,7356.60000000149,"",,,,,,,,,,,0,,,,,
html-keyboard-response,645,1048847,null,"",null,,,,,,,,,,,,,,,
math-period,646,1050582,1711.300000000745,"",,,,,,,,,,,4,,,,,
html-keyboard-response,647,1051590,null,"Recall Period!",null,,,,,,,,,,,,,,,
call-function,648,1051591,,"",,,,,,,,,,,,,,,,
html-keyboard-response,649,1051692,null,"",null,,,,,,,,,,,,,,,
recall-period,650,1058683,76666.90000000224,"",,,,,,,,,,,Hamper,,,,,
html-keyboard-response,651,1058787,null,"",null,,,,,,,,,,,,,,,
recall-period,652,1062711,23043.69999999553,"",,,,,,,,,,,Omelet,,,,,
html-keyboard-response,653,1062816,null,"",null,,,,,,,,,,,,,,,
recall-period,654,1065180,10566.39999999851,"",,,,,,,,,,,Yolk,,,,,
html-keyboard-response,655,1065292,null,"",null,,,,,,,,,,,,,,,
recall-period,656,1070259,31319.69999998808,"",,,,,,,,,,,Coffin,,,,,
html-keyboard-response,657,1070368,null,"",null,,,,,,,,,,,,,,,
recall-period,658,1126598,null,"",,,,,,,,,,,,,,,,
html-keyboard-response,659,1127106,null,"Time's Up!",null,,,,,,,,,,,,,,,
html-keyboard-response,660,1176544,49435.300000000745,"<p> Good job! You have responded correctly to 99% of the trials. </p>
                      <p>Be sure to only press the spacebar if you see a red square, and please keep your accuracy above 80%.</p>
                      <p> Press any key to continue the experiment. </p>",32,,,,,,,,,,,,,,,
html-keyboard-response,661,1177167,621.5,"<div style=""font-size:48px;"">Press any key to begin list 7 of 16 </div>",32,,,,,,,,,,,,,,,
html-keyboard-response,662,1179687,null,"<div style=""font-size:60px;"">+</div>",null,,,,,,,,,,,,,,,
html-keyboard-response,663,1179891,null,"<div style=""font-size:42px;"">BARLEY</div><img id = ""stim"" ><div class = green_square id = bottomsquare></div>",null,encoding,word_square,,,0,bottomsquare,none,true,,,BARLEY,6,,,
html-keyboard-response,664,1180201,null,"<div style=""font-size:42px;"">BARLEY</div>",null,,word,BARLEY,,,,,,,,,,,,
html-keyboard-response,665,1181704,null,"",null,,word,BARLEY,,,,,,,,,,,,
html-keyboard-response,666,1181907,null,"<div style=""font-size:42px;"">JAPAN</div><img id = ""stim"" ><div class = green_square id = topsquare></div>",null,encoding,word_square,,,0,topsquare,none,true,,,JAPAN,6,,,
html-keyboard-response,667,1182224,null,"<div style=""font-size:42px;"">JAPAN</div>",null,,word,JAPAN,,,,,,,,,,,,
html-keyboard-response,668,1183733,null,"",null,,word,JAPAN,,,,,,,,,,,,
html-keyboard-response,669,1183944,null,"<div style=""font-size:42px;"">EUROPE</div><img id = ""stim"" ><div class = red_square id = topsquare></div>",null,encoding,word_square,,,1,topsquare,32,true,,,EUROPE,6,,,
html-keyboard-response,670,1184251,null,"<div style=""font-size:42px;"">EUROPE</div>",null,,word,EUROPE,,,,,,,,,,,,
html-keyboard-response,671,1185766,14.100000001490116,"",32,,word,EUROPE,,,,,,,,,,,,
html-keyboard-response,672,1185978,null,"<div style=""font-size:42px;"">TOOTHBRUSH</div><img id = ""stim"" ><div class = green_square id = bottomsquare></div>",null,encoding,word_square,,,0,bottomsquare,none,true,,,TOOTHBRUSH,6,,,
html-keyboard-response,673,1186285,null,"<div style=""font-size:42px;"">TOOTHBRUSH</div>",null,,word,TOOTHBRUSH,,,,,,,,,,,,
html-keyboard-response,674,1187790,null,"",null,,word,TOOTHBRUSH,,,,,,,,,,,,
html-keyboard-response,675,1188001,null,"<div style=""font-size:42px;"">OFFICE</div><img id = ""stim"" ><div class = green_square id = topsquare></div>",null,encoding,word_square,,,0,topsquare,none,true,,,OFFICE,6,,,
html-keyboard-response,676,1188314,null,"<div style=""font-size:42px;"">OFFICE</div>",null,,word,OFFICE,,,,,,,,,,,,
html-keyboard-response,677,1189822,null,"",null,,word,OFFICE,,,,,,,,,,,,
html-keyboard-response,678,1190026,null,"<div style=""font-size:42px;"">LILY</div><img id = ""stim"" ><div class = red_square id = bottomsquare></div>",null,encoding,word_square,,,1,bottomsquare,32,true,,,LILY,6,,,
html-keyboard-response,679,1190328,287.80000000074506,"<div style=""font-size:42px;"">LILY</div>",32,,word,LILY,,,,,,,,,,,,
html-keyboard-response,680,1191834,null,"",null,,word,LILY,,,,,,,,,,,,
html-keyboard-response,681,1192043,null,"<div style=""font-size:42px;"">BOUQUET</div><img id = ""stim"" ><div class = green_square id = bottomsquare></div>",null,encoding,word_square,,,0,bottomsquare,none,true,,,BOUQUET,6,,,
html-keyboard-response,682,1192356,null,"<div style=""font-size:42px;"">BOUQUET</div>",null,,word,BOUQUET,,,,,,,,,,,,
html-keyboard-response,683,1193872,null,"",null,,word,BOUQUET,,,,,,,,,,,,
html-keyboard-response,684,1194076,null,"<div style=""font-size:42px;"">RUG</div><img id = ""stim"" ><div class = red_square id = topsquare></div>",null,encoding,word_square,,,1,topsquare,32,true,,,RUG,6,,,
html-keyboard-response,685,1194379,null,"<div style=""font-size:42px;"">RUG</div>",null,,word,RUG,,,,,,,,,,,,
html-keyboard-response,686,1195892,22.699999999254942,"",32,,word,RUG,,,,,,,,,,,,
html-keyboard-response,687,1196102,null,"<div style=""font-size:42px;"">STAPLE</div><img id = ""stim"" ><div class = red_square id = bottomsquare></div>",null,encoding,word_square,,,1,bottomsquare,32,true,,,STAPLE,6,,,
html-keyboard-response,688,1196416,280.19999999925494,"<div style=""font-size:42px;"">STAPLE</div>",32,,word,STAPLE,,,,,,,,,,,,
html-keyboard-response,689,1197931,null,"",null,,word,STAPLE,,,,,,,,,,,,
html-keyboard-response,690,1198141,null,"<div style=""font-size:42px;"">PAPER</div><img id = ""stim"" ><div class = green_square id = topsquare></div>",null,encoding,word_square,,,0,topsquare,none,true,,,PAPER,6,,,
html-keyboard-response,691,1198454,null,"<div style=""font-size:42px;"">PAPER</div>",null,,word,PAPER,,,,,,,,,,,,
html-keyboard-response,692,1199971,null,"",null,,word,PAPER,,,,,,,,,,,,
html-keyboard-response,693,1200175,null,"<div style=""font-size:42px;"">FOREST</div><img id = ""stim"" ><div class = red_square id = topsquare></div>",null,encoding,word_square,,,1,topsquare,32,true,,,FOREST,6,,,
html-keyboard-response,694,1200489,151.10000000149012,"<div style=""font-size:42px;"">FOREST</div>",32,,word,FOREST,,,,,,,,,,,,
html-keyboard-response,695,1202002,null,"",null,,word,FOREST,,,,,,,,,,,,
html-keyboard-response,696,1202207,null,"<div style=""font-size:42px;"">LUNCH</div><img id = ""stim"" ><div class = red_square id = bottomsquare></div>",null,encoding,word_square,,,1,bottomsquare,32,true,,,LUNCH,6,,,
html-keyboard-response,697,1202509,186.29999999701977,"<div style=""font-size:42px;"">LUNCH</div>",32,,word,LUNCH,,,,,,,,,,,,
html-keyboard-response,698,1204018,null,"",null,,word,LUNCH,,,,,,,,,,,,
html-keyboard-response,699,1204228,null,"<div style=""font-size:42px;"">BLOSSOM</div><img id = ""stim"" ><div class = green_square id = bottomsquare></div>",null,encoding,word_square,,,0,bottomsquare,none,true,,,BLOSSOM,6,,,
html-keyboard-response,700,1204544,null,"<div style=""font-size:42px;"">BLOSSOM</div>",null,,word,BLOSSOM,,,,,,,,,,,,
html-keyboard-response,701,1206058,null,"",null,,word,BLOSSOM,,,,,,,,,,,,
html-keyboard-response,702,1206261,null,"<div style=""font-size:42px;"">DRAWER</div><img id = ""stim"" ><div class = red_square id = topsquare></div>",null,encoding,word_square,,,1,topsquare,32,true,,,DRAWER,6,,,
html-keyboard-response,703,1206578,263.80000000074506,"<div style=""font-size:42px;"">DRAWER</div>",32,,word,DRAWER,,,,,,,,,,,,
html-keyboard-response,704,1208084,null,"",null,,word,DRAWER,,,,,,,,,,,,
html-keyboard-response,705,1208287,null,"<div style=""font-size:42px;"">CEILING</div><img id = ""stim"" ><div class = red_square id = bottomsquare></div>",null,encoding,word_square,,,1,bottomsquare,32,true,,,CEILING,6,,,
html-keyboard-response,706,1208590,177,"<div style=""font-size:42px;"">CEILING</div>",32,,word,CEILING,,,,,,,,,,,,
html-keyboard-response,707,1210104,null,"",null,,word,CEILING,,,,,,,,,,,,
html-keyboard-response,708,1210308,null,"<div style=""font-size:42px;"">LUMBER</div><img id = ""stim"" ><div class = green_square id = topsquare></div>",null,encoding,word_square,,,0,topsquare,none,true,,,LUMBER,6,,,
html-keyboard-response,709,1210622,null,"<div style=""font-size:42px;"">LUMBER</div>",null,,word,LUMBER,,,,,,,,,,,,
html-keyboard-response,710,1212134,null,"",null,,word,LUMBER,,,,,,,,,,,,
call-function,711,1212136,,"",,,,,,,,,,,,,,,,
html-keyboard-response,712,1212244,null,"",null,,,,,,,,,,,,,,,
math-period,713,1214558,4393.5,"",,,,,,,,,,,4,,,,,
html-keyboard-response,714,1214666,null,"",null,,,,,,,,,,,,,,,
math-period,715,1219209,8980.199999999255,"",,,,,,,,,,,2,,,,,
html-keyboard-response,716,1219318,null,"",null,,,,,,,,,,,,,,,
math-period,717,1220606,2469.5,"",,,,,,,,,,,4,,,,,
html-keyboard-response,718,1220708,null,"",null,,,,,,,,,,,,,,,
math-period,719,1224869,8195.499999996275,"",,,,,,,,,,,5,,,,,
html-keyboard-response,720,1224977,null,"",null,,,,,,,,,,,,,,,
math-period,721,1227361,4621,"",,,,,,,,,,,0,,,,,
html-keyboard-response,722,1227475,null,"",null,,,,,,,,,,,,,,,
math-period,723,1230429,5409.699999999255,"",,,,,,,,,,,1,,,,,
html-keyboard-response,724,1230546,null,"",null,,,,,,,,,,,,,,,
math-period,725,1231545,1907.3999999985099,"",,,,,,,,,,,2,,,,,
html-keyboard-response,726,1231661,null,"",null,,,,,,,,,,,,,,,
math-period,727,1232341,1276.7999999970198,"",,,,,,,,,,,2,,,,,
html-keyboard-response,728,1232445,null,"",null,,,,,,,,,,,,,,,
math-period,729,1233405,1849.7000000029802,"",,,,,,,,,,,3,,,,,
html-keyboard-response,730,1233507,null,"",null,,,,,,,,,,,,,,,
math-period,731,1234397,1697.2000000029802,"",,,,,,,,,,,3,,,,,
html-keyboard-response,732,1234500,null,"",null,,,,,,,,,,,,,,,
math-period,733,1236149,null,"",,,,,,,,,,,,,,,,
html-keyboard-response,734,1237163,null,"Recall Period!",null,,,,,,,,,,,,,,,
call-function,735,1237164,,"",,,,,,,,,,,,,,,,
html-keyboard-response,736,1237277,null,"",null,,,,,,,,,,,,,,,
recall-period,737,1244921,42427.99999999255,"",,,,,,,,,,,Bouquet,,,,,
html-keyboard-response,738,1245025,null,"",null,,,,,,,,,,,,,,,
recall-period,739,1246945,9588.09999999404,"",,,,,,,,,,,Lumber,,,,,
html-keyboard-response,740,1247051,null,"",null,,,,,,,,,,,,,,,
recall-period,741,1248788,5394.599999997765,"",,,,,,,,,,,Paper,,,,,
html-keyboard-response,742,1248903,null,"",null,,,,,,,,,,,,,,,
recall-period,743,1250328,5522.900000002235,"",,,,,,,,,,,Lunch,,,,,
html-keyboard-response,744,1250432,null,"",null,,,,,,,,,,,,,,,
recall-period,745,1259040,68768.80000001192,"",,,,,,,,,,,Blossom,,,,,
html-keyboard-response,746,1259142,null,"",null,,,,,,,,,,,,,,,
recall-period,747,1312170,null,"",,,,,,,,,,,,,,,,
html-keyboard-response,748,1312675,null,"Time's Up!",null,,,,,,,,,,,,,,,
html-keyboard-response,749,1407547,94871,"<p> Good job! You have responded correctly to 99% of the trials. </p>
                      <p>Be sure to only press the spacebar if you see a red square, and please keep your accuracy above 80%.</p>
                      <p> Press any key to continue the experiment. </p>",32,,,,,,,,,,,,,,,
html-keyboard-response,750,1408438,889.8999999985099,"<div style=""font-size:48px;"">Press any key to begin list 8 of 16 </div>",32,,,,,,,,,,,,,,,
html-keyboard-response,751,1410955,null,"<div style=""font-size:60px;"">+</div>",null,,,,,,,,,,,,,,,
html-keyboard-response,752,1411170,null,"<div style=""font-size:42px;"">CHEST</div><img id = ""stim"" ><div class = green_square id = topsquare></div>",null,encoding,word_square,,,0,topsquare,none,true,,,CHEST,7,,,
html-keyboard-response,753,1411482,null,"<div style=""font-size:42px;"">CHEST</div>",null,,word,CHEST,,,,,,,,,,,,
html-keyboard-response,754,1412999,null,"",null,,word,CHEST,,,,,,,,,,,,
html-keyboard-response,755,1413204,null,"<div style=""font-size:42px;"">TWEEZERS</div><img id = ""stim"" ><div class = red_square id = bottomsquare></div>",null,encoding,word_square,,,1,bottomsquare,32,true,,,TWEEZERS,7,,,
html-keyboard-response,756,1413511,281,"<div style=""font-size:42px;"">TWEEZERS</div>",32,,word,TWEEZERS,,,,,,,,,,,,
html-keyboard-response,757,1415024,null,"",null,,word,TWEEZERS,,,,,,,,,,,,
html-keyboard-response,758,1415240,null,"<div style=""font-size:42px;"">NEPHEW</div><img id = ""stim"" ><div class = red_square id = topsquare></div>",null,encoding,word_square,,,1,topsquare,32,true,,,NEPHEW,7,,,
html-keyboard-response,759,1415555,181.39999999850988,"<div style=""font-size:42px;"">NEPHEW</div>",32,,word,NEPHEW,,,,,,,,,,,,
html-keyboard-response,760,1417066,null,"",null,,word,NEPHEW,,,,,,,,,,,,
html-keyboard-response,761,1417270,null,"<div style=""font-size:42px;"">CONTRACT</div><img id = ""stim"" ><div class = green_square id = bottomsquare></div>",null,encoding,word_square,,,0,bottomsquare,none,true,,,CONTRACT,7,,,
html-keyboard-response,762,1417574,null,"<div style=""font-size:42px;"">CONTRACT</div>",null,,word,CONTRACT,,,,,,,,,,,,
html-keyboard-response,763,1419091,null,"",null,,word,CONTRACT,,,,,,,,,,,,
html-keyboard-response,764,1419300,null,"<div style=""font-size:42px;"">MUFFIN</div><img id = ""stim"" ><div class = red_square id = bottomsquare></div>",null,encoding,word_square,,,1,bottomsquare,32,true,,,MUFFIN,7,,,
html-keyboard-response,765,1419613,269.30000000074506,"<div style=""font-size:42px;"">MUFFIN</div>",32,,word,MUFFIN,,,,,,,,,,,,
html-keyboard-response,766,1421117,null,"",null,,word,MUFFIN,,,,,,,,,,,,
html-keyboard-response,767,1421326,null,"<div style=""font-size:42px;"">FOOTBALL</div><img id = ""stim"" ><div class = red_square id = topsquare></div>",null,encoding,word_square,,,1,topsquare,32,true,,,FOOTBALL,7,,,
html-keyboard-response,768,1421640,206.80000000074506,"<div style=""font-size:42px;"">FOOTBALL</div>",32,,word,FOOTBALL,,,,,,,,,,,,
html-keyboard-response,769,1423144,null,"",null,,word,FOOTBALL,,,,,,,,,,,,
html-keyboard-response,770,1423352,null,"<div style=""font-size:42px;"">CANDY</div><img id = ""stim"" ><div class = green_square id = topsquare></div>",null,encoding,word_square,,,0,topsquare,none,true,,,CANDY,7,,,
html-keyboard-response,771,1423660,null,"<div style=""font-size:42px;"">CANDY</div>",null,,word,CANDY,,,,,,,,,,,,
html-keyboard-response,772,1425169,null,"",null,,word,CANDY,,,,,,,,,,,,
html-keyboard-response,773,1425372,null,"<div style=""font-size:42px;"">EAGLE</div><img id = ""stim"" ><div class = red_square id = bottomsquare></div>",null,encoding,word_square,,,1,bottomsquare,32,true,,,EAGLE,7,,,
html-keyboard-response,774,1425676,null,"<div style=""font-size:42px;"">EAGLE</div>",null,,word,EAGLE,,,,,,,,,,,,
html-keyboard-response,775,1427188,316.1000000014901,"",32,,word,EAGLE,,,,,,,,,,,,
html-keyboard-response,776,1427399,null,"<div style=""font-size:42px;"">PARROT</div><img id = ""stim"" ><div class = red_square id = topsquare></div>",null,encoding,word_square,,,1,topsquare,32,true,,,PARROT,7,,,
html-keyboard-response,777,1427702,285.3999999985099,"<div style=""font-size:42px;"">PARROT</div>",32,,word,PARROT,,,,,,,,,,,,
html-keyboard-response,778,1429210,null,"",null,,word,PARROT,,,,,,,,,,,,
html-keyboard-response,779,1429414,null,"<div style=""font-size:42px;"">SIDEWALK</div><img id = ""stim"" ><div class = green_square id = bottomsquare></div>",null,encoding,word_square,,,0,bottomsquare,none,true,,,SIDEWALK,7,,,
html-keyboard-response,780,1429722,null,"<div style=""font-size:42px;"">SIDEWALK</div>",null,,word,SIDEWALK,,,,,,,,,,,,
html-keyboard-response,781,1431233,null,"",null,,word,SIDEWALK,,,,,,,,,,,,
html-keyboard-response,782,1431441,null,"<div style=""font-size:42px;"">UMPIRE</div><img id = ""stim"" ><div class = red_square id = bottomsquare></div>",null,encoding,word_square,,,1,bottomsquare,32,true,,,UMPIRE,7,,,
html-keyboard-response,783,1431756,220.09999999776483,"<div style=""font-size:42px;"">UMPIRE</div>",32,,word,UMPIRE,,,,,,,,,,,,
html-keyboard-response,784,1433267,null,"",null,,word,UMPIRE,,,,,,,,,,,,
html-keyboard-response,785,1433470,null,"<div style=""font-size:42px;"">HIKER</div><img id = ""stim"" ><div class = green_square id = topsquare></div>",null,encoding,word_square,,,0,topsquare,none,true,,,HIKER,7,,,
html-keyboard-response,786,1433781,null,"<div style=""font-size:42px;"">HIKER</div>",null,,word,HIKER,,,,,,,,,,,,
html-keyboard-response,787,1435297,null,"",null,,word,HIKER,,,,,,,,,,,,
html-keyboard-response,788,1435504,null,"<div style=""font-size:42px;"">TRIGGER</div><img id = ""stim"" ><div class = green_square id = bottomsquare></div>",null,encoding,word_square,,,0,bottomsquare,none,true,,,TRIGGER,7,,,
html-keyboard-response,789,1435806,null,"<div style=""font-size:42px;"">TRIGGER</div>",null,,word,TRIGGER,,,,,,,,,,,,
html-keyboard-response,790,1437322,null,"",null,,word,TRIGGER,,,,,,,,,,,,
html-keyboard-response,791,1437528,null,"<div style=""font-size:42px;"">PEACH</div><img id = ""stim"" ><div class = red_square id = topsquare></div>",null,encoding,word_square,,,1,topsquare,32,true,,,PEACH,7,,,
html-keyboard-response,792,1437842,227.10000000149012,"<div style=""font-size:42px;"">PEACH</div>",32,,word,PEACH,,,,,,,,,,,,
html-keyboard-response,793,1439349,null,"",null,,word,PEACH,,,,,,,,,,,,
html-keyboard-response,794,1439558,null,"<div style=""font-size:42px;"">RUST</div><img id = ""stim"" ><div class = green_square id = topsquare></div>",null,encoding,word_square,,,0,topsquare,none,true,,,RUST,7,,,
html-keyboard-response,795,1439873,null,"<div style=""font-size:42px;"">RUST</div>",null,,word,RUST,,,,,,,,,,,,
html-keyboard-response,796,1441390,null,"",null,,word,RUST,,,,,,,,,,,,
html-keyboard-response,797,1441594,null,"<div style=""font-size:42px;"">CLERK</div><img id = ""stim"" ><div class = green_square id = bottomsquare></div>",null,encoding,word_square,,,0,bottomsquare,none,true,,,CLERK,7,,,
html-keyboard-response,798,1441897,null,"<div style=""font-size:42px;"">CLERK</div>",null,,word,CLERK,,,,,,,,,,,,
html-keyboard-response,799,1443406,null,"",null,,word,CLERK,,,,,,,,,,,,
call-function,800,1443407,,"",,,,,,,,,,,,,,,,
html-keyboard-response,801,1443516,null,"",null,,,,,,,,,,,,,,,
math-period,802,1445945,4398.89999999851,"",,,,,,,,,,,3,,,,,
html-keyboard-response,803,1446053,null,"",null,,,,,,,,,,,,,,,
math-period,804,1449009,5753.39999999851,"",,,,,,,,,,,1,,,,,
html-keyboard-response,805,1449121,null,"",null,,,,,,,,,,,,,,,
math-period,806,1450640,2904.7000000029802,"",,,,,,,,,,,3,,,,,
html-keyboard-response,807,1450745,null,"",null,,,,,,,,,,,,,,,
math-period,808,1451780,1913.5,"",,,,,,,,,,,3,,,,,
html-keyboard-response,809,1451889,null,"",null,,,,,,,,,,,,,,,
math-period,810,1453341,2797.5000000037253,"",,,,,,,,,,,3,,,,,
html-keyboard-response,811,1453442,null,"",null,,,,,,,,,,,,,,,
math-period,812,1454141,1311.699999999255,"",,,,,,,,,,,3,,,,,
html-keyboard-response,813,1454247,null,"",null,,,,,,,,,,,,,,,
math-period,814,1456477,4365.89999999851,"",,,,,,,,,,,4,,,,,
html-keyboard-response,815,1456587,null,"",null,,,,,,,,,,,,,,,
math-period,816,1460056,6794.999999996275,"",,,,,,,,,,,3,,,,,
html-keyboard-response,817,1460166,null,"",null,,,,,,,,,,,,,,,
math-period,818,1463956,7436.499999996275,"",,,,,,,,,,,5,,,,,
html-keyboard-response,819,1464065,null,"",null,,,,,,,,,,,,,,,
math-period,820,1465151,2082.599999997765,"",,,,,,,,,,,5,,,,,
html-keyboard-response,821,1465255,null,"",null,,,,,,,,,,,,,,,
math-period,822,1465932,1269.7999999970198,"",,,,,,,,,,,5,,,,,
html-keyboard-response,823,1466039,null,"",null,,,,,,,,,,,,,,,
math-period,824,1467418,null,"",,,,,,,,,,,,,,,,
html-keyboard-response,825,1468421,null,"Recall Period!",null,,,,,,,,,,,,,,,
call-function,826,1468422,,"",,,,,,,,,,,,,,,,
html-keyboard-response,827,1468531,null,"",null,,,,,,,,,,,,,,,
recall-period,828,1471456,12734.900000009686,"",,,,,,,,,,,Bus,,,,,
html-keyboard-response,829,1471561,null,"",null,,,,,,,,,,,,,,,
recall-period,830,1476859,42451.100000005215,"",,,,,,,,,,,Trigger,,,,,
html-keyboard-response,831,1476961,null,"",null,,,,,,,,,,,,,,,
recall-period,832,1543427,null,"",,,,,,,,,,,,,,,,
html-keyboard-response,833,1543930,null,"Time's Up!",null,,,,,,,,,,,,,,,
html-keyboard-response,834,1677245,133313.59999999776,"<p> Good job! You have responded correctly to 99% of the trials. </p>
                      <p>Be sure to only press the spacebar if you see a red square, and please keep your accuracy above 80%.</p>
                      <p> Press any key to continue the experiment. </p>",32,,,,,,,,,,,,,,,
html-keyboard-response,835,1678052,806.3999999985099,"<div style=""font-size:48px;"">Press any key to begin list 9 of 16 </div>",32,,,,,,,,,,,,,,,
html-keyboard-response,836,1680564,null,"<div style=""font-size:60px;"">+</div>",null,,,,,,,,,,,,,,,
html-keyboard-response,837,1680766,null,"<div style=""font-size:42px;"">BUG</div><img id = ""stim"" ><div class = red_square id = topsquare></div>",null,encoding,word_square,,,1,topsquare,32,true,,,BUG,8,,,
html-keyboard-response,838,1681068,175.5,"<div style=""font-size:42px;"">BUG</div>",32,,word,BUG,,,,,,,,,,,,
html-keyboard-response,839,1682570,null,"",null,,word,BUG,,,,,,,,,,,,
html-keyboard-response,840,1682776,null,"<div style=""font-size:42px;"">ATTIC</div><img id = ""stim"" ><div class = red_square id = bottomsquare></div>",null,encoding,word_square,,,1,bottomsquare,32,true,,,ATTIC,8,,,
html-keyboard-response,841,1683088,198.60000000149012,"<div style=""font-size:42px;"">ATTIC</div>",32,,word,ATTIC,,,,,,,,,,,,
html-keyboard-response,842,1684600,null,"",null,,word,ATTIC,,,,,,,,,,,,
html-keyboard-response,843,1684806,null,"<div style=""font-size:42px;"">LIZARD</div><img id = ""stim"" ><div class = green_square id = bottomsquare></div>",null,encoding,word_square,,,0,bottomsquare,none,true,,,LIZARD,8,,,
html-keyboard-response,844,1685121,null,"<div style=""font-size:42px;"">LIZARD</div>",null,,word,LIZARD,,,,,,,,,,,,
html-keyboard-response,845,1686626,null,"",null,,word,LIZARD,,,,,,,,,,,,
html-keyboard-response,846,1686830,null,"<div style=""font-size:42px;"">POISON</div><img id = ""stim"" ><div class = red_square id = topsquare></div>",null,encoding,word_square,,,1,topsquare,32,true,,,POISON,8,,,
html-keyboard-response,847,1687132,156.80000000074506,"<div style=""font-size:42px;"">POISON</div>",32,,word,POISON,,,,,,,,,,,,
html-keyboard-response,848,1688636,null,"",null,,word,POISON,,,,,,,,,,,,
html-keyboard-response,849,1688842,null,"<div style=""font-size:42px;"">KNIFE</div><img id = ""stim"" ><div class = red_square id = bottomsquare></div>",null,encoding,word_square,,,1,bottomsquare,32,true,,,KNIFE,8,,,
html-keyboard-response,850,1689155,160.39999999850988,"<div style=""font-size:42px;"">KNIFE</div>",32,,word,KNIFE,,,,,,,,,,,,
html-keyboard-response,851,1690659,null,"",null,,word,KNIFE,,,,,,,,,,,,
html-keyboard-response,852,1690863,null,"<div style=""font-size:42px;"">CROSS</div><img id = ""stim"" ><div class = green_square id = topsquare></div>",null,encoding,word_square,,,0,topsquare,none,true,,,CROSS,8,,,
html-keyboard-response,853,1691172,null,"<div style=""font-size:42px;"">CROSS</div>",null,,word,CROSS,,,,,,,,,,,,
html-keyboard-response,854,1692686,null,"",null,,word,CROSS,,,,,,,,,,,,
html-keyboard-response,855,1692892,null,"<div style=""font-size:42px;"">DRUG</div><img id = ""stim"" ><div class = green_square id = bottomsquare></div>",null,encoding,word_square,,,0,bottomsquare,none,true,,,DRUG,8,,,
html-keyboard-response,856,1693197,null,"<div style=""font-size:42px;"">DRUG</div>",null,,word,DRUG,,,,,,,,,,,,
html-keyboard-response,857,1694713,null,"",null,,word,DRUG,,,,,,,,,,,,
html-keyboard-response,858,1694916,null,"<div style=""font-size:42px;"">STREET</div><img id = ""stim"" ><div class = red_square id = topsquare></div>",null,encoding,word_square,,,1,topsquare,32,true,,,STREET,8,,,
html-keyboard-response,859,1695223,184.30000000074506,"<div style=""font-size:42px;"">STREET</div>",32,,word,STREET,,,,,,,,,,,,
html-keyboard-response,860,1696738,null,"",null,,word,STREET,,,,,,,,,,,,
html-keyboard-response,861,1696941,null,"<div style=""font-size:42px;"">BLADE</div><img id = ""stim"" ><div class = green_square id = topsquare></div>",null,encoding,word_square,,,0,topsquare,none,true,,,BLADE,8,,,
html-keyboard-response,862,1697256,null,"<div style=""font-size:42px;"">BLADE</div>",null,,word,BLADE,,,,,,,,,,,,
html-keyboard-response,863,1698764,null,"",null,,word,BLADE,,,,,,,,,,,,
html-keyboard-response,864,1698971,null,"<div style=""font-size:42px;"">JOINT</div><img id = ""stim"" ><div class = green_square id = bottomsquare></div>",null,encoding,word_square,,,0,bottomsquare,none,true,,,JOINT,8,,,
html-keyboard-response,865,1699274,null,"<div style=""font-size:42px;"">JOINT</div>",null,,word,JOINT,,,,,,,,,,,,
html-keyboard-response,866,1700783,null,"",null,,word,JOINT,,,,,,,,,,,,
html-keyboard-response,867,1700990,null,"<div style=""font-size:42px;"">OINTMENT</div><img id = ""stim"" ><div class = red_square id = bottomsquare></div>",null,encoding,word_square,,,1,bottomsquare,32,true,,,OINTMENT,8,,,
html-keyboard-response,868,1701306,156.30000000074506,"<div style=""font-size:42px;"">OINTMENT</div>",32,,word,OINTMENT,,,,,,,,,,,,
html-keyboard-response,869,1702820,null,"",null,,word,OINTMENT,,,,,,,,,,,,
html-keyboard-response,870,1703026,null,"<div style=""font-size:42px;"">FILM</div><img id = ""stim"" ><div class = green_square id = topsquare></div>",null,encoding,word_square,,,0,topsquare,none,true,,,FILM,8,,,
html-keyboard-response,871,1703328,null,"<div style=""font-size:42px;"">FILM</div>",null,,word,FILM,,,,,,,,,,,,
html-keyboard-response,872,1704844,null,"",null,,word,FILM,,,,,,,,,,,,
html-keyboard-response,873,1705049,null,"<div style=""font-size:42px;"">TREASURE</div><img id = ""stim"" ><div class = red_square id = topsquare></div>",null,encoding,word_square,,,1,topsquare,32,true,,,TREASURE,8,,,
html-keyboard-response,874,1705364,276.8999999985099,"<div style=""font-size:42px;"">TREASURE</div>",32,,word,TREASURE,,,,,,,,,,,,
html-keyboard-response,875,1706875,null,"",null,,word,TREASURE,,,,,,,,,,,,
html-keyboard-response,876,1707080,null,"<div style=""font-size:42px;"">JUGGLER</div><img id = ""stim"" ><div class = red_square id = bottomsquare></div>",null,encoding,word_square,,,1,bottomsquare,32,true,,,JUGGLER,8,,,
html-keyboard-response,877,1707387,206,"<div style=""font-size:42px;"">JUGGLER</div>",32,,word,JUGGLER,,,,,,,,,,,,
html-keyboard-response,878,1708904,null,"",null,,word,JUGGLER,,,,,,,,,,,,
html-keyboard-response,879,1709108,null,"<div style=""font-size:42px;"">GYMNAST</div><img id = ""stim"" ><div class = green_square id = bottomsquare></div>",null,encoding,word_square,,,0,bottomsquare,none,true,,,GYMNAST,8,,,
html-keyboard-response,880,1709413,null,"<div style=""font-size:42px;"">GYMNAST</div>",null,,word,GYMNAST,,,,,,,,,,,,
html-keyboard-response,881,1710918,null,"",null,,word,GYMNAST,,,,,,,,,,,,
html-keyboard-response,882,1711123,null,"<div style=""font-size:42px;"">BOUILLON</div><img id = ""stim"" ><div class = green_square id = topsquare></div>",null,encoding,word_square,,,0,topsquare,none,true,,,BOUILLON,8,,,
