trial_type,trial_index,time_elapsed,rt,stimulus,key_press,exp_phase,test_part,word,task,targ_cond,sq_pos,correctKeyCode,correct,value,response,Word,List,RecResp,serial_pos,colorChosen
pavlovia,0,2389,,"",,,,,,,,,,,,,,,,
external-html,1,7985,5449.099999964237,"",,,,,,,,,,,,,,,,
html-keyboard-response,2,9421,1433.0999999642372,"Welcome to the experiment. Press any key to begin.",32,,,,,,,,,,,,,,,
html-keyboard-response,3,20557,11133.700000047684,"<p>You will see a list of words and colored squares in the following task.<p><p>Press the spacebar whenever you see a red square.<p><p>Do not press a key if the square is green.<p><p>Press the spacebar to continue.</p>",32,,,,,,,,,,,,,,,
html-keyboard-response,4,30820,9744.5,"<p>Please try to remember as many of the words as you can, and try to think about the meaning of each word as it appears.<p><p>After the detection and encoding task you will be asked to solve some math problems for 24 seconds.<p> Please solve as many problems as you can in the time given. <p><p><p>Press the spacebar to continue.</p>",32,,,,,,,,,,,,,,,
html-keyboard-response,5,41347,10024.699999988079,"After solving the math problems, you will be asked to type in as many words <p>from the previous list as you can remember for 75 seconds.<p> If you finish recalling before the 75 seconds are up,<p> just sit tight and try to think of any more words you could have missed. <p><p><p>Press the spacebar to continue.</p>",32,,,,,,,,,,,,,,,
html-keyboard-response,6,47254,5404.400000035763,"There will be 16 lists of words and recall, followed  by<p><p> a recognition phase. The experiment is expected to take up to 90 minutes.<p>We will begin with a brief practice session.<p>Press the spacebar to begin the practice.</p>",32,,,,,,,,,,,,,,,
html-keyboard-response,7,49758,null,"<div style=""font-size:60px;"">+</div>",null,,,,,,,,,,,,,,,
html-keyboard-response,8,49961,null,"<div style=""font-size:42px;"">HAPPY</div><img id = ""stim"" ><div class = green_square id = ""bottomsquare"" ></div>",null,practice,word_square,HAPPY,prac_response,0,Bottom,none,true,,,,,,,
html-keyboard-response,9,50263,null,"<div style=""font-size:42px;"">HAPPY</div>",null,,word,HAPPY,,,,,,,,,,,,
html-keyboard-response,10,51766,null,"",null,,word,HAPPY,,,,,,,,,,,,
html-keyboard-response,11,51970,null,"<div style=""font-size:42px;"">COLD</div><img id = ""stim"" ><div class = red_square id = ""bottomsquare"" ></div>",null,practice,word_square,COLD,prac_response,1,Bottom,32,true,,,,,,,
html-keyboard-response,12,52272,93.70000004768372,"<div style=""font-size:42px;"">COLD</div>",32,,word,COLD,,,,,,,,,,,,
html-keyboard-response,13,53775,null,"",null,,word,COLD,,,,,,,,,,,,
html-keyboard-response,14,53977,null,"<div style=""font-size:42px;"">HEAVY</div><img id = ""stim"" ><div class = red_square id = ""topsquare"" ></div>",null,practice,word_square,HEAVY,prac_response,1,Top,32,true,,,,,,,
html-keyboard-response,15,54279,158.30000001192093,"<div style=""font-size:42px;"">HEAVY</div>",32,,word,HEAVY,,,,,,,,,,,,
html-keyboard-response,16,55782,null,"",null,,word,HEAVY,,,,,,,,,,,,
html-keyboard-response,17,55984,null,"<div style=""font-size:42px;"">FUNNY</div><img id = ""stim"" ><div class = green_square id = ""topsquare"" ></div>",null,practice,word_square,FUNNY,prac_response,0,Top,none,false,,,,,,,
html-keyboard-response,18,56286,100.19999998807907,"<div style=""font-size:42px;"">FUNNY</div>",32,,word,FUNNY,,,,,,,,,,,,
html-keyboard-response,19,57789,null,"",null,,word,FUNNY,,,,,,,,,,,,
html-keyboard-response,20,57990,null,"<div style=""font-size:42px;"">SCARY</div><img id = ""stim"" ><div class = red_square id = ""bottomsquare"" ></div>",null,practice,word_square,SCARY,prac_response,1,Bottom,32,true,,,,,,,
html-keyboard-response,21,58293,135,"<div style=""font-size:42px;"">SCARY</div>",32,,word,SCARY,,,,,,,,,,,,
html-keyboard-response,22,59804,null,"",null,,word,SCARY,,,,,,,,,,,,
html-keyboard-response,23,60007,null,"<div style=""font-size:42px;"">PEACEFUL</div><img id = ""stim"" ><div class = red_square id = ""topsquare"" ></div>",null,practice,word_square,PEACEFUL,prac_response,1,Top,32,true,,,,,,,
html-keyboard-response,24,60309,158,"<div style=""font-size:42px;"">PEACEFUL</div>",32,,word,PEACEFUL,,,,,,,,,,,,
html-keyboard-response,25,61811,null,"",null,,word,PEACEFUL,,,,,,,,,,,,
html-keyboard-response,26,62014,null,"<div style=""font-size:42px;"">LITTLE</div><img id = ""stim"" ><div class = green_square id = ""bottomsquare"" ></div>",null,practice,word_square,LITTLE,prac_response,0,Bottom,none,false,,,,,,,
html-keyboard-response,27,62315,null,"<div style=""font-size:42px;"">LITTLE</div>",null,,word,LITTLE,,,,,,,,,,,,
html-keyboard-response,28,63818,90.90000003576279,"",32,,word,LITTLE,,,,,,,,,,,,
html-keyboard-response,29,64020,null,"<div style=""font-size:42px;"">TIRED</div><img id = ""stim"" ><div class = green_square id = ""topsquare"" ></div>",null,practice,word_square,TIRED,prac_response,0,Top,none,true,,,,,,,
html-keyboard-response,30,64322,null,"<div style=""font-size:42px;"">TIRED</div>",null,,word,TIRED,,,,,,,,,,,,
html-keyboard-response,31,65824,null,"",null,,word,TIRED,,,,,,,,,,,,
html-keyboard-response,32,66026,null,"<div style=""font-size:42px;"">ENTERTAINING</div><img id = ""stim"" ><div class = green_square id = ""bottomsquare"" ></div>",null,practice,word_square,ENTERTAINING,prac_response,0,Bottom,none,true,,,,,,,
html-keyboard-response,33,66328,null,"<div style=""font-size:42px;"">ENTERTAINING</div>",null,,word,ENTERTAINING,,,,,,,,,,,,
html-keyboard-response,34,67831,null,"",null,,word,ENTERTAINING,,,,,,,,,,,,
html-keyboard-response,35,68033,null,"<div style=""font-size:42px;"">GRATEFUL</div><img id = ""stim"" ><div class = red_square id = ""bottomsquare"" ></div>",null,practice,word_square,GRATEFUL,prac_response,1,Bottom,32,true,,,,,,,
html-keyboard-response,36,68336,234.5,"<div style=""font-size:42px;"">GRATEFUL</div>",32,,word,GRATEFUL,,,,,,,,,,,,
html-keyboard-response,37,69838,null,"",null,,word,GRATEFUL,,,,,,,,,,,,
html-keyboard-response,38,70040,null,"<div style=""font-size:42px;"">LOUD</div><img id = ""stim"" ><div class = green_square id = ""topsquare"" ></div>",null,practice,word_square,LOUD,prac_response,0,Top,none,true,,,,,,,
html-keyboard-response,39,70343,null,"<div style=""font-size:42px;"">LOUD</div>",null,,word,LOUD,,,,,,,,,,,,
html-keyboard-response,40,71844,null,"",null,,word,LOUD,,,,,,,,,,,,
html-keyboard-response,41,72046,null,"<div style=""font-size:42px;"">SMART</div><img id = ""stim"" ><div class = red_square id = ""topsquare"" ></div>",null,practice,word_square,SMART,prac_response,1,Top,32,true,,,,,,,
html-keyboard-response,42,72349,216.39999997615814,"<div style=""font-size:42px;"">SMART</div>",32,,word,SMART,,,,,,,,,,,,
html-keyboard-response,43,73851,null,"",null,,word,SMART,,,,,,,,,,,,
html-keyboard-response,44,74053,null,"<div style=""font-size:42px;"">SMOOTH</div><img id = ""stim"" ><div class = red_square id = ""bottomsquare"" ></div>",null,practice,word_square,SMOOTH,prac_response,1,Bottom,32,true,,,,,,,
html-keyboard-response,45,74356,160.19999998807907,"<div style=""font-size:42px;"">SMOOTH</div>",32,,word,SMOOTH,,,,,,,,,,,,
html-keyboard-response,46,75861,null,"",null,,word,SMOOTH,,,,,,,,,,,,
html-keyboard-response,47,76064,null,"<div style=""font-size:42px;"">DISHONEST</div><img id = ""stim"" ><div class = green_square id = ""bottomsquare"" ></div>",null,practice,word_square,DISHONEST,prac_response,0,Bottom,none,false,,,,,,,
html-keyboard-response,48,76380,108.5,"<div style=""font-size:42px;"">DISHONEST</div>",32,,word,DISHONEST,,,,,,,,,,,,
html-keyboard-response,49,77881,null,"",null,,word,DISHONEST,,,,,,,,,,,,
html-keyboard-response,50,78084,null,"<div style=""font-size:42px;"">WEALTHY</div><img id = ""stim"" ><div class = red_square id = ""topsquare"" ></div>",null,practice,word_square,WEALTHY,prac_response,1,Top,32,true,,,,,,,
html-keyboard-response,51,78386,204.80000001192093,"<div style=""font-size:42px;"">WEALTHY</div>",32,,word,WEALTHY,,,,,,,,,,,,
html-keyboard-response,52,79888,null,"",null,,word,WEALTHY,,,,,,,,,,,,
html-keyboard-response,53,80091,null,"<div style=""font-size:42px;"">BEAUTIFUL</div><img id = ""stim"" ><div class = green_square id = ""topsquare"" ></div>",null,practice,word_square,BEAUTIFUL,prac_response,0,Top,none,true,,,,,,,
html-keyboard-response,54,80393,null,"<div style=""font-size:42px;"">BEAUTIFUL</div>",null,,word,BEAUTIFUL,,,,,,,,,,,,
html-keyboard-response,55,81895,null,"",null,,word,BEAUTIFUL,,,,,,,,,,,,
html-keyboard-response,56,87269,5370.600000023842,"<p> Good job! You responded correctly to 81% of the trials. </p>
                  <p>Be sure to only press the spacebar if you see a red square, and please keep your accuracy above 80%.</p>
                  <p>We're going to try once more to make sure you understand the task. press any key to continue. </p>",32,,,,,,,,,,,,,,,
html-keyboard-response,57,91447,4175.899999976158,"<p>You will see a list of words and colored squares in the following task.<p><p>Press the spacebar whenever you see a red square.<p><p>Do not press a key if the square is green<p><p>Press the spacebar to continue.</p>",32,,,,,,,,,,,,,,,
html-keyboard-response,58,93949,null,"<div style=""font-size:60px;"">+</div>",null,,,,,,,,,,,,,,,
html-keyboard-response,59,94152,null,"<div style=""font-size:42px;"">HAPPY</div><img id = ""stim"" ><div class = green_square id = ""bottomsquare"" ></div>",null,practice2,word_square,HAPPY,prac_response,0,Bottom,none,true,,,,,,,
html-keyboard-response,60,94454,null,"<div style=""font-size:42px;"">HAPPY</div>",null,,word,HAPPY,,,,,,,,,,,,
html-keyboard-response,61,95957,null,"",null,,word,HAPPY,,,,,,,,,,,,
html-keyboard-response,62,96160,null,"<div style=""font-size:42px;"">COLD</div><img id = ""stim"" ><div class = red_square id = ""bottomsquare"" ></div>",null,practice2,word_square,,prac_response,1,Bottom,32,true,,,,,,,
html-keyboard-response,63,96463,201.39999997615814,"<div style=""font-size:42px;"">COLD</div>",32,,word,COLD,,,,,,,,,,,,
html-keyboard-response,64,97964,null,"",null,,word,COLD,,,,,,,,,,,,
html-keyboard-response,65,98167,null,"<div style=""font-size:42px;"">HEAVY</div><img id = ""stim"" ><div class = red_square id = ""topsquare"" ></div>",null,practice2,word_square,,prac_response,1,Top,32,true,,,,,,,
html-keyboard-response,66,98468,223.60000002384186,"<div style=""font-size:42px;"">HEAVY</div>",32,,word,HEAVY,,,,,,,,,,,,
html-keyboard-response,67,99971,null,"",null,,word,HEAVY,,,,,,,,,,,,
html-keyboard-response,68,100173,null,"<div style=""font-size:42px;"">FUNNY</div><img id = ""stim"" ><div class = green_square id = ""topsquare"" ></div>",null,practice2,word_square,,prac_response,0,Top,none,true,,,,,,,
html-keyboard-response,69,100475,null,"<div style=""font-size:42px;"">FUNNY</div>",null,,word,FUNNY,,,,,,,,,,,,
html-keyboard-response,70,101977,null,"",null,,word,FUNNY,,,,,,,,,,,,
html-keyboard-response,71,102180,null,"<div style=""font-size:42px;"">SCARY</div><img id = ""stim"" ><div class = red_square id = ""bottomsquare"" ></div>",null,practice2,word_square,,prac_response,1,Bottom,32,true,,,,,,,
html-keyboard-response,72,102482,150.0999999642372,"<div style=""font-size:42px;"">SCARY</div>",32,,word,SCARY,,,,,,,,,,,,
html-keyboard-response,73,103984,null,"",null,,word,SCARY,,,,,,,,,,,,
html-keyboard-response,74,104186,null,"<div style=""font-size:42px;"">PEACEFUL</div><img id = ""stim"" ><div class = red_square id = ""topsquare"" ></div>",null,practice2,word_square,,prac_response,1,Top,32,true,,,,,,,
html-keyboard-response,75,104489,150.0999999642372,"<div style=""font-size:42px;"">PEACEFUL</div>",32,,word,PEACEFUL,,,,,,,,,,,,
html-keyboard-response,76,105990,null,"",null,,word,PEACEFUL,,,,,,,,,,,,
html-keyboard-response,77,106193,null,"<div style=""font-size:42px;"">LITTLE</div><img id = ""stim"" ><div class = green_square id = ""bottomsquare"" ></div>",null,practice2,word_square,LITTLE,prac_response,0,Bottom,none,true,,,,,,,
html-keyboard-response,78,106495,null,"<div style=""font-size:42px;"">LITTLE</div>",null,,word,LITTLE,,,,,,,,,,,,
html-keyboard-response,79,107997,null,"",null,,word,LITTLE,,,,,,,,,,,,
html-keyboard-response,80,108200,null,"<div style=""font-size:42px;"">TIRED</div><img id = ""stim"" ><div class = green_square id = ""topsquare"" ></div>",null,practice2,word_square,,prac_response,0,Top,none,true,,,,,,,
html-keyboard-response,81,108502,null,"<div style=""font-size:42px;"">TIRED</div>",null,,word,TIRED,,,,,,,,,,,,
html-keyboard-response,82,110004,null,"",null,,word,TIRED,,,,,,,,,,,,
html-keyboard-response,83,110206,null,"<div style=""font-size:42px;"">ENTERTAINING</div><img id = ""stim"" ><div class = green_square id = ""bottomsquare"" ></div>",null,practice2,word_square,ENTERTAINING,prac_response,0,Bottom,none,true,,,,,,,
html-keyboard-response,84,110508,null,"<div style=""font-size:42px;"">ENTERTAINING</div>",null,,word,ENTERTAINING,,,,,,,,,,,,
html-keyboard-response,85,112010,null,"",null,,word,ENTERTAINING,,,,,,,,,,,,
html-keyboard-response,86,112213,null,"<div style=""font-size:42px;"">GRATEFUL</div><img id = ""stim"" ><div class = red_square id = ""bottomsquare"" ></div>",null,practice2,word_square,,prac_response,1,Bottom,32,true,,,,,,,
html-keyboard-response,87,112515,106.69999998807907,"<div style=""font-size:42px;"">GRATEFUL</div>",32,,word,GRATEFUL,,,,,,,,,,,,
html-keyboard-response,88,114018,null,"",null,,word,GRATEFUL,,,,,,,,,,,,
html-keyboard-response,89,114220,null,"<div style=""font-size:42px;"">LOUD</div><img id = ""stim"" ><div class = green_square id = ""topsquare"" ></div>",null,practice2,word_square,,prac_response,0,Top,none,true,,,,,,,
html-keyboard-response,90,114522,null,"<div style=""font-size:42px;"">LOUD</div>",null,,word,LOUD,,,,,,,,,,,,
html-keyboard-response,91,116024,null,"",null,,word,LOUD,,,,,,,,,,,,
html-keyboard-response,92,116227,null,"<div style=""font-size:42px;"">SMART</div><img id = ""stim"" ><div class = red_square id = ""topsquare"" ></div>",null,practice2,word_square,,prac_response,1,Top,32,true,,,,,,,
html-keyboard-response,93,116529,127.5,"<div style=""font-size:42px;"">SMART</div>",32,,word,SMART,,,,,,,,,,,,
html-keyboard-response,94,118031,null,"",null,,word,SMART,,,,,,,,,,,,
html-keyboard-response,95,118233,null,"<div style=""font-size:42px;"">SMOOTH</div><img id = ""stim"" ><div class = red_square id = ""bottomsquare"" ></div>",null,practice2,word_square,,prac_response,1,Bottom,32,true,,,,,,,
html-keyboard-response,96,118537,119,"<div style=""font-size:42px;"">SMOOTH</div>",32,,word,SMOOTH,,,,,,,,,,,,
html-keyboard-response,97,120039,null,"",null,,word,SMOOTH,,,,,,,,,,,,
html-keyboard-response,98,120242,null,"<div style=""font-size:42px;"">DISHONEST</div><img id = ""stim"" ><div class = green_square id = ""bottomsquare"" ></div>",null,practice2,word_square,DISHONEST,prac_response,0,Bottom,none,true,,,,,,,
html-keyboard-response,99,120545,null,"<div style=""font-size:42px;"">DISHONEST</div>",null,,word,DISHONEST,,,,,,,,,,,,
html-keyboard-response,100,122046,null,"",null,,word,DISHONEST,,,,,,,,,,,,
html-keyboard-response,101,122248,null,"<div style=""font-size:42px;"">WEALTHY</div><img id = ""stim"" ><div class = red_square id = ""topsquare"" ></div>",null,practice2,word_square,,prac_response,1,Top,32,true,,,,,,,
html-keyboard-response,102,122550,104.59999996423721,"<div style=""font-size:42px;"">WEALTHY</div>",32,,word,WEALTHY,,,,,,,,,,,,
html-keyboard-response,103,124052,null,"",null,,word,WEALTHY,,,,,,,,,,,,
html-keyboard-response,104,124257,null,"<div style=""font-size:42px;"">BEAUTIFUL</div><img id = ""stim"" ><div class = green_square id = ""topsquare"" ></div>",null,practice2,word_square,,prac_response,0,Top,none,false,,,,,,,
html-keyboard-response,105,124558,null,"<div style=""font-size:42px;"">BEAUTIFUL</div>",null,,word,BEAUTIFUL,,,,,,,,,,,,
html-keyboard-response,106,126060,null,"",null,,word,BEAUTIFUL,,,,,,,,,,,,
html-keyboard-response,107,130853,4791.100000023842,"<p> Good job! You responded correctly to 100% of the trials. </p>
                    <p>Be sure to only press the spacebar if you see a red square, and please keep your accuracy above 80%.</p>
                    <p>Press any key to begin the math and recall sections. Thank you! </p>",32,,,,,,,,,,,,,,,
call-function,108,130854,,"",,,,,,,,,,,,,,,,
html-keyboard-response,109,130956,null,"",null,,,,,,,,,,,,,,,
math-period,110,134495,6530.200000047684,"",,,,,,,,,,,5,,,,,
html-keyboard-response,111,134597,null,"",null,,,,,,,,,,,,,,,
math-period,112,137875,6279.200000047684,"",,,,,,,,,,,0,,,,,
html-keyboard-response,113,137977,null,"",null,,,,,,,,,,,,,,,
math-period,114,140201,4115.099999964237,"",,,,,,,,,,,5,,,,,
html-keyboard-response,115,140304,null,"",null,,,,,,,,,,,,,,,
math-period,116,141448,2147.900000035763,"",,,,,,,,,,,4,,,,,
html-keyboard-response,117,141549,null,"",null,,,,,,,,,,,,,,,
math-period,118,144161,4917.499999940395,"",,,,,,,,,,,3,,,,,
html-keyboard-response,119,144263,null,"",null,,,,,,,,,,,,,,,
math-period,120,145139,1538.3999999761581,"",,,,,,,,,,,3,,,,,
html-keyboard-response,121,145241,null,"",null,,,,,,,,,,,,,,,
math-period,122,147343,3977.600000023842,"",,,,,,,,,,,1,,,,,
html-keyboard-response,123,147445,null,"",null,,,,,,,,,,,,,,,
math-period,124,148481,1944.199999988079,"",,,,,,,,,,,2,,,,,
html-keyboard-response,125,148583,null,"",null,,,,,,,,,,,,,,,
math-period,126,149608,1894.6999999284744,"",,,,,,,,,,,4,,,,,
html-keyboard-response,127,149709,null,"",null,,,,,,,,,,,,,,,
math-period,128,151280,2911.899999976158,"",,,,,,,,,,,1,,,,,
html-keyboard-response,129,151382,null,"",null,,,,,,,,,,,,,,,
math-period,130,153041,3158.800000011921,"",,,,,,,,,,,1,,,,,
html-keyboard-response,131,153142,null,"",null,,,,,,,,,,,,,,,
math-period,132,154857,null,"",,,,,,,,,,,,,,,,
html-keyboard-response,133,155859,null,"Recall Period!",null,,,,,,,,,,,,,,,
call-function,134,155860,,"",,,,,,,,,,,,,,,,
html-keyboard-response,135,155962,null,"",null,,,,,,,,,,,,,,,
recall-period,136,158986,15351.599999904633,"",,,,,,,,,,,happy,,,,,
html-keyboard-response,137,159088,null,"",null,,,,,,,,,,,,,,,
recall-period,138,160991,11427.900000274181,"",,,,,,,,,,,dishonest,,,,,
html-keyboard-response,139,161093,null,"",null,,,,,,,,,,,,,,,
recall-period,140,162078,3131.199999988079,"",,,,,,,,,,,sad,,,,,
html-keyboard-response,141,162179,null,"",null,,,,,,,,,,,,,,,
recall-period,142,165787,20679.30000001192,"",,,,,,,,,,,gloomy,,,,,
html-keyboard-response,143,165889,null,"",null,,,,,,,,,,,,,,,
recall-period,144,176626,49908.700000047684,"",,,,,,,,,,,glad,,,,,
html-keyboard-response,145,176728,null,"",null,,,,,,,,,,,,,,,
recall-period,146,230863,null,"",,,,,,,,,,,,,,,,
html-keyboard-response,147,231366,null,"Time's Up!",null,,,,,,,,,,,,,,,
html-keyboard-response,148,235827,4459.399999976158,"<p>We will now begin the experiment!<p><p>Please try to remember all words from each list.<p><p>Press the spacebar whenever you see a red square.<p><p><p><p>Press the spacebar to begin.</p>",32,,,,,,,,,,,,,,,
html-keyboard-response,149,238279,1950.7999999523163,"<div style=""font-size:48px;"">Press any key to begin list 1 of 16 </div>",32,,,,,,,,,,,,,,,
html-keyboard-response,150,240781,null,"<div style=""font-size:60px;"">+</div>",null,,,,,,,,,,,,,,,
html-keyboard-response,151,240983,null,"<div style=""font-size:42px;"">CAPTIVE</div><img id = ""stim"" ><div class = red_square id = topsquare></div>",null,encoding,word_square,,,1,topsquare,32,true,,,CAPTIVE,0,,,
html-keyboard-response,152,241285,202,"<div style=""font-size:42px;"">CAPTIVE</div>",32,,word,CAPTIVE,,,,,,,,,,,,
html-keyboard-response,153,242788,null,"",null,,word,CAPTIVE,,,,,,,,,,,,
html-keyboard-response,154,242991,null,"<div style=""font-size:42px;"">RACKET</div><img id = ""stim"" ><div class = green_square id = bottomsquare></div>",null,encoding,word_square,,,0,bottomsquare,none,true,,,RACKET,0,,,
html-keyboard-response,155,243293,null,"<div style=""font-size:42px;"">RACKET</div>",null,,word,RACKET,,,,,,,,,,,,
html-keyboard-response,156,244795,null,"",null,,word,RACKET,,,,,,,,,,,,
html-keyboard-response,157,244997,null,"<div style=""font-size:42px;"">YARN</div><img id = ""stim"" ><div class = green_square id = topsquare></div>",null,encoding,word_square,,,0,topsquare,none,true,,,YARN,0,,,
html-keyboard-response,158,245299,null,"<div style=""font-size:42px;"">YARN</div>",null,,word,YARN,,,,,,,,,,,,
html-keyboard-response,159,246802,null,"",null,,word,YARN,,,,,,,,,,,,
html-keyboard-response,160,247004,null,"<div style=""font-size:42px;"">PASSAGE</div><img id = ""stim"" ><div class = red_square id = bottomsquare></div>",null,encoding,word_square,,,1,bottomsquare,32,true,,,PASSAGE,0,,,
html-keyboard-response,161,247307,133,"<div style=""font-size:42px;"">PASSAGE</div>",32,,word,PASSAGE,,,,,,,,,,,,
html-keyboard-response,162,248809,null,"",null,,word,PASSAGE,,,,,,,,,,,,
html-keyboard-response,163,249011,null,"<div style=""font-size:42px;"">CRAB</div><img id = ""stim"" ><div class = green_square id = bottomsquare></div>",null,encoding,word_square,,,0,bottomsquare,none,true,,,CRAB,0,,,
html-keyboard-response,164,249313,null,"<div style=""font-size:42px;"">CRAB</div>",null,,word,CRAB,,,,,,,,,,,,
html-keyboard-response,165,250816,null,"",null,,word,CRAB,,,,,,,,,,,,
html-keyboard-response,166,251018,null,"<div style=""font-size:42px;"">TROUT</div><img id = ""stim"" ><div class = green_square id = topsquare></div>",null,encoding,word_square,,,0,topsquare,none,true,,,TROUT,0,,,
html-keyboard-response,167,251319,null,"<div style=""font-size:42px;"">TROUT</div>",null,,word,TROUT,,,,,,,,,,,,
html-keyboard-response,168,252830,null,"",null,,word,TROUT,,,,,,,,,,,,
html-keyboard-response,169,253033,null,"<div style=""font-size:42px;"">JELLY</div><img id = ""stim"" ><div class = red_square id = topsquare></div>",null,encoding,word_square,,,1,topsquare,32,true,,,JELLY,0,,,
html-keyboard-response,170,253335,174.69999998807907,"<div style=""font-size:42px;"">JELLY</div>",32,,word,JELLY,,,,,,,,,,,,
html-keyboard-response,171,254838,null,"",null,,word,JELLY,,,,,,,,,,,,
html-keyboard-response,172,255040,null,"<div style=""font-size:42px;"">SHORTS</div><img id = ""stim"" ><div class = green_square id = bottomsquare></div>",null,encoding,word_square,,,0,bottomsquare,none,true,,,SHORTS,0,,,
html-keyboard-response,173,255342,null,"<div style=""font-size:42px;"">SHORTS</div>",null,,word,SHORTS,,,,,,,,,,,,
html-keyboard-response,174,256845,null,"",null,,word,SHORTS,,,,,,,,,,,,
html-keyboard-response,175,257047,null,"<div style=""font-size:42px;"">CHISEL</div><img id = ""stim"" ><div class = green_square id = topsquare></div>",null,encoding,word_square,,,0,topsquare,none,true,,,CHISEL,0,,,
html-keyboard-response,176,257349,null,"<div style=""font-size:42px;"">CHISEL</div>",null,,word,CHISEL,,,,,,,,,,,,
html-keyboard-response,177,258852,null,"",null,,word,CHISEL,,,,,,,,,,,,
html-keyboard-response,178,259054,null,"<div style=""font-size:42px;"">HOSTESS</div><img id = ""stim"" ><div class = red_square id = bottomsquare></div>",null,encoding,word_square,,,1,bottomsquare,32,true,,,HOSTESS,0,,,
html-keyboard-response,179,259357,183.5999999642372,"<div style=""font-size:42px;"">HOSTESS</div>",32,,word,HOSTESS,,,,,,,,,,,,
html-keyboard-response,180,260859,null,"",null,,word,HOSTESS,,,,,,,,,,,,
html-keyboard-response,181,261062,null,"<div style=""font-size:42px;"">FREEWAY</div><img id = ""stim"" ><div class = red_square id = topsquare></div>",null,encoding,word_square,,,1,topsquare,32,true,,,FREEWAY,0,,,
html-keyboard-response,182,261364,199.0999999642372,"<div style=""font-size:42px;"">FREEWAY</div>",32,,word,FREEWAY,,,,,,,,,,,,
html-keyboard-response,183,262867,null,"",null,,word,FREEWAY,,,,,,,,,,,,
html-keyboard-response,184,263070,null,"<div style=""font-size:42px;"">LOUNGE</div><img id = ""stim"" ><div class = red_square id = bottomsquare></div>",null,encoding,word_square,,,1,bottomsquare,32,true,,,LOUNGE,0,,,
html-keyboard-response,185,263371,100.5,"<div style=""font-size:42px;"">LOUNGE</div>",32,,word,LOUNGE,,,,,,,,,,,,
html-keyboard-response,186,264873,null,"",null,,word,LOUNGE,,,,,,,,,,,,
html-keyboard-response,187,265075,null,"<div style=""font-size:42px;"">COSTUME</div><img id = ""stim"" ><div class = green_square id = bottomsquare></div>",null,encoding,word_square,,,0,bottomsquare,none,true,,,COSTUME,0,,,
html-keyboard-response,188,265378,null,"<div style=""font-size:42px;"">COSTUME</div>",null,,word,COSTUME,,,,,,,,,,,,
html-keyboard-response,189,266880,null,"",null,,word,COSTUME,,,,,,,,,,,,
html-keyboard-response,190,267082,null,"<div style=""font-size:42px;"">NOTEBOOK</div><img id = ""stim"" ><div class = red_square id = topsquare></div>",null,encoding,word_square,,,1,topsquare,32,true,,,NOTEBOOK,0,,,
html-keyboard-response,191,267384,123.19999998807907,"<div style=""font-size:42px;"">NOTEBOOK</div>",32,,word,NOTEBOOK,,,,,,,,,,,,
html-keyboard-response,192,268887,null,"",null,,word,NOTEBOOK,,,,,,,,,,,,
html-keyboard-response,193,269090,null,"<div style=""font-size:42px;"">BABY</div><img id = ""stim"" ><div class = red_square id = bottomsquare></div>",null,encoding,word_square,,,1,bottomsquare,32,true,,,BABY,0,,,
html-keyboard-response,194,269392,164.60000002384186,"<div style=""font-size:42px;"">BABY</div>",32,,word,BABY,,,,,,,,,,,,
html-keyboard-response,195,270894,null,"",null,,word,BABY,,,,,,,,,,,,
html-keyboard-response,196,271097,null,"<div style=""font-size:42px;"">CRIB</div><img id = ""stim"" ><div class = green_square id = topsquare></div>",null,encoding,word_square,,,0,topsquare,none,true,,,CRIB,0,,,
html-keyboard-response,197,271399,null,"<div style=""font-size:42px;"">CRIB</div>",null,,word,CRIB,,,,,,,,,,,,
html-keyboard-response,198,272901,null,"",null,,word,CRIB,,,,,,,,,,,,
call-function,199,272902,,"",,,,,,,,,,,,,,,,
html-keyboard-response,200,273004,null,"",null,,,,,,,,,,,,,,,
math-period,201,276067,5683.700000047684,"",,,,,,,,,,,1,,,,,
html-keyboard-response,202,276170,null,"",null,,,,,,,,,,,,,,,
math-period,203,277207,1857.0999999642372,"",,,,,,,,,,,3,,,,,
html-keyboard-response,204,277311,null,"",null,,,,,,,,,,,,,,,
math-period,205,278222,1647,"",,,,,,,,,,,3,,,,,
html-keyboard-response,206,278324,null,"",null,,,,,,,,,,,,,,,
math-period,207,280950,8422.899999976158,"",,,,,,,,,,,6,,,,,
html-keyboard-response,208,281052,null,"",null,,,,,,,,,,,,,,,
math-period,209,282720,2873.7999999523163,"",,,,,,,,,,,4,,,,,
html-keyboard-response,210,282822,null,"",null,,,,,,,,,,,,,,,
math-period,211,285347,4632.599999964237,"",,,,,,,,,,,3,,,,,
html-keyboard-response,212,285449,null,"",null,,,,,,,,,,,,,,,
math-period,213,286707,2173.5,"",,,,,,,,,,,5,,,,,
html-keyboard-response,214,286809,null,"",null,,,,,,,,,,,,,,,
math-period,215,287838,1883.9000000357628,"",,,,,,,,,,,4,,,,,
html-keyboard-response,216,287940,null,"",null,,,,,,,,,,,,,,,
math-period,217,289146,2239.599999964237,"",,,,,,,,,,,5,,,,,
html-keyboard-response,218,289248,null,"",null,,,,,,,,,,,,,,,
math-period,219,290167,1678.699999988079,"",,,,,,,,,,,4,,,,,
html-keyboard-response,220,290269,null,"",null,,,,,,,,,,,,,,,
math-period,221,293500,6175.100000023842,"",,,,,,,,,,,0,,,,,
html-keyboard-response,222,293602,null,"",null,,,,,,,,,,,,,,,
math-period,223,294752,1930.4999999403954,"",,,,,,,,,,,3,,,,,
html-keyboard-response,224,294854,null,"",null,,,,,,,,,,,,,,,
math-period,225,296904,null,"",,,,,,,,,,,,,,,,
html-keyboard-response,226,297907,null,"Recall Period!",null,,,,,,,,,,,,,,,
call-function,227,297907,,"",,,,,,,,,,,,,,,,
html-keyboard-response,228,298010,null,"",null,,,,,,,,,,,,,,,
recall-period,229,300163,10093.900000095367,"",,,,,,,,,,,jelly,,,,,
html-keyboard-response,230,300266,null,"",null,,,,,,,,,,,,,,,
recall-period,231,301150,2683.5000001192093,"",,,,,,,,,,,yarn,,,,,
html-keyboard-response,232,301252,null,"",null,,,,,,,,,,,,,,,
recall-period,233,302950,7959.600000202656,"",,,,,,,,,,,trout,,,,,
html-keyboard-response,234,303052,null,"",null,,,,,,,,,,,,,,,
recall-period,235,305073,8133.200000107288,"",,,,,,,,,,,crab,,,,,
html-keyboard-response,236,305176,null,"",null,,,,,,,,,,,,,,,
recall-period,237,310017,31121.400000095367,"",,,,,,,,,,,racket,,,,,
html-keyboard-response,238,310119,null,"",null,,,,,,,,,,,,,,,
recall-period,239,372910,null,"",,,,,,,,,,,,,,,,
html-keyboard-response,240,373413,null,"Time's Up!",null,,,,,,,,,,,,,,,
html-keyboard-response,241,375034,1620,"<p> Good job! You have responded correctly to 100% of the trials. </p>
                      <p>Be sure to only press the spacebar if you see a red square, and please keep your accuracy above 80%.</p>
                      <p> Press any key to continue the experiment. </p>",32,,,,,,,,,,,,,,,
html-keyboard-response,242,377940,2903.599999964237,"<div style=""font-size:48px;"">Press any key to begin list 2 of 16 </div>",32,,,,,,,,,,,,,,,
html-keyboard-response,243,380442,null,"<div style=""font-size:60px;"">+</div>",null,,,,,,,,,,,,,,,
html-keyboard-response,244,380645,null,"<div style=""font-size:42px;"">HOSTAGE</div><img id = ""stim"" ><div class = green_square id = topsquare></div>",null,encoding,word_square,,,0,topsquare,none,true,,,HOSTAGE,1,,,
html-keyboard-response,245,380947,null,"<div style=""font-size:42px;"">HOSTAGE</div>",null,,word,HOSTAGE,,,,,,,,,,,,
html-keyboard-response,246,382450,null,"",null,,word,HOSTAGE,,,,,,,,,,,,
html-keyboard-response,247,382652,null,"<div style=""font-size:42px;"">PEDAL</div><img id = ""stim"" ><div class = red_square id = bottomsquare></div>",null,encoding,word_square,,,1,bottomsquare,32,true,,,PEDAL,1,,,
html-keyboard-response,248,382954,120,"<div style=""font-size:42px;"">PEDAL</div>",32,,word,PEDAL,,,,,,,,,,,,
html-keyboard-response,249,384456,null,"",null,,word,PEDAL,,,,,,,,,,,,
html-keyboard-response,250,384659,null,"<div style=""font-size:42px;"">GAZELLE</div><img id = ""stim"" ><div class = red_square id = topsquare></div>",null,encoding,word_square,,,1,topsquare,32,true,,,GAZELLE,1,,,
html-keyboard-response,251,384960,156.5,"<div style=""font-size:42px;"">GAZELLE</div>",32,,word,GAZELLE,,,,,,,,,,,,
html-keyboard-response,252,386462,null,"",null,,word,GAZELLE,,,,,,,,,,,,
html-keyboard-response,253,386664,null,"<div style=""font-size:42px;"">STREAM</div><img id = ""stim"" ><div class = green_square id = bottomsquare></div>",null,encoding,word_square,,,0,bottomsquare,none,true,,,STREAM,1,,,
html-keyboard-response,254,386966,null,"<div style=""font-size:42px;"">STREAM</div>",null,,word,STREAM,,,,,,,,,,,,
html-keyboard-response,255,388468,null,"",null,,word,STREAM,,,,,,,,,,,,
html-keyboard-response,256,388671,null,"<div style=""font-size:42px;"">RIVER</div><img id = ""stim"" ><div class = red_square id = bottomsquare></div>",null,encoding,word_square,,,1,bottomsquare,32,true,,,RIVER,1,,,
html-keyboard-response,257,388972,101.69999998807907,"<div style=""font-size:42px;"">RIVER</div>",32,,word,RIVER,,,,,,,,,,,,
html-keyboard-response,258,390476,null,"",null,,word,RIVER,,,,,,,,,,,,
html-keyboard-response,259,390679,null,"<div style=""font-size:42px;"">CABOOSE</div><img id = ""stim"" ><div class = red_square id = topsquare></div>",null,encoding,word_square,,,1,topsquare,32,true,,,CABOOSE,1,,,
html-keyboard-response,260,390982,167.30000001192093,"<div style=""font-size:42px;"">CABOOSE</div>",32,,word,CABOOSE,,,,,,,,,,,,
html-keyboard-response,261,392484,null,"",null,,word,CABOOSE,,,,,,,,,,,,
html-keyboard-response,262,392687,null,"<div style=""font-size:42px;"">CLOSET</div><img id = ""stim"" ><div class = red_square id = bottomsquare></div>",null,encoding,word_square,,,1,bottomsquare,32,true,,,CLOSET,1,,,
html-keyboard-response,263,392989,153,"<div style=""font-size:42px;"">CLOSET</div>",32,,word,CLOSET,,,,,,,,,,,,
html-keyboard-response,264,394492,null,"",null,,word,CLOSET,,,,,,,,,,,,
html-keyboard-response,265,394695,null,"<div style=""font-size:42px;"">STONE</div><img id = ""stim"" ><div class = green_square id = topsquare></div>",null,encoding,word_square,,,0,topsquare,none,true,,,STONE,1,,,
html-keyboard-response,266,394997,null,"<div style=""font-size:42px;"">STONE</div>",null,,word,STONE,,,,,,,,,,,,
html-keyboard-response,267,396499,null,"",null,,word,STONE,,,,,,,,,,,,
html-keyboard-response,268,396702,null,"<div style=""font-size:42px;"">KIDNEY</div><img id = ""stim"" ><div class = green_square id = bottomsquare></div>",null,encoding,word_square,,,0,bottomsquare,none,true,,,KIDNEY,1,,,
html-keyboard-response,269,397004,null,"<div style=""font-size:42px;"">KIDNEY</div>",null,,word,KIDNEY,,,,,,,,,,,,
html-keyboard-response,270,398506,null,"",null,,word,KIDNEY,,,,,,,,,,,,
html-keyboard-response,271,398709,null,"<div style=""font-size:42px;"">POSSUM</div><img id = ""stim"" ><div class = red_square id = topsquare></div>",null,encoding,word_square,,,1,topsquare,32,true,,,POSSUM,1,,,
html-keyboard-response,272,399011,213.80000001192093,"<div style=""font-size:42px;"">POSSUM</div>",32,,word,POSSUM,,,,,,,,,,,,
html-keyboard-response,273,400514,null,"",null,,word,POSSUM,,,,,,,,,,,,
html-keyboard-response,274,400716,null,"<div style=""font-size:42px;"">STOCKING</div><img id = ""stim"" ><div class = green_square id = topsquare></div>",null,encoding,word_square,,,0,topsquare,none,true,,,STOCKING,1,,,
html-keyboard-response,275,401019,null,"<div style=""font-size:42px;"">STOCKING</div>",null,,word,STOCKING,,,,,,,,,,,,
html-keyboard-response,276,402520,null,"",null,,word,STOCKING,,,,,,,,,,,,
html-keyboard-response,277,402723,null,"<div style=""font-size:42px;"">EGYPT</div><img id = ""stim"" ><div class = green_square id = bottomsquare></div>",null,encoding,word_square,,,0,bottomsquare,none,true,,,EGYPT,1,,,
html-keyboard-response,278,403027,null,"<div style=""font-size:42px;"">EGYPT</div>",null,,word,EGYPT,,,,,,,,,,,,
html-keyboard-response,279,404529,null,"",null,,word,EGYPT,,,,,,,,,,,,
html-keyboard-response,280,404731,null,"<div style=""font-size:42px;"">COUNTRY</div><img id = ""stim"" ><div class = red_square id = bottomsquare></div>",null,encoding,word_square,,,1,bottomsquare,32,true,,,COUNTRY,1,,,
html-keyboard-response,281,405033,141.89999997615814,"<div style=""font-size:42px;"">COUNTRY</div>",32,,word,COUNTRY,,,,,,,,,,,,
html-keyboard-response,282,406536,null,"",null,,word,COUNTRY,,,,,,,,,,,,
html-keyboard-response,283,406738,null,"<div style=""font-size:42px;"">DAISY</div><img id = ""stim"" ><div class = green_square id = topsquare></div>",null,encoding,word_square,,,0,topsquare,none,true,,,DAISY,1,,,
html-keyboard-response,284,407040,null,"<div style=""font-size:42px;"">DAISY</div>",null,,word,DAISY,,,,,,,,,,,,
html-keyboard-response,285,408543,null,"",null,,word,DAISY,,,,,,,,,,,,
html-keyboard-response,286,408745,null,"<div style=""font-size:42px;"">PRIMATE</div><img id = ""stim"" ><div class = green_square id = bottomsquare></div>",null,encoding,word_square,,,0,bottomsquare,none,true,,,PRIMATE,1,,,
html-keyboard-response,287,409047,null,"<div style=""font-size:42px;"">PRIMATE</div>",null,,word,PRIMATE,,,,,,,,,,,,
html-keyboard-response,288,410551,null,"",null,,word,PRIMATE,,,,,,,,,,,,
html-keyboard-response,289,410753,null,"<div style=""font-size:42px;"">GIRL</div><img id = ""stim"" ><div class = red_square id = topsquare></div>",null,encoding,word_square,,,1,topsquare,32,true,,,GIRL,1,,,
html-keyboard-response,290,411055,169.19999998807907,"<div style=""font-size:42px;"">GIRL</div>",32,,word,GIRL,,,,,,,,,,,,
html-keyboard-response,291,412565,null,"",null,,word,GIRL,,,,,,,,,,,,
call-function,292,412566,,"",,,,,,,,,,,,,,,,
html-keyboard-response,293,412669,null,"",null,,,,,,,,,,,,,,,
math-period,294,415094,4333.5,"",,,,,,,,,,,1,,,,,
html-keyboard-response,295,415196,null,"",null,,,,,,,,,,,,,,,
math-period,296,417017,5742.500000059605,"",,,,,,,,,,,4,,,,,
html-keyboard-response,297,417119,null,"",null,,,,,,,,,,,,,,,
math-period,298,417862,1258.9000000357628,"",,,,,,,,,,,4,,,,,
html-keyboard-response,299,417964,null,"",null,,,,,,,,,,,,,,,
math-period,300,419027,1910.0999999642372,"",,,,,,,,,,,3,,,,,
html-keyboard-response,301,419129,null,"",null,,,,,,,,,,,,,,,
math-period,302,419942,1466.699999988079,"",,,,,,,,,,,4,,,,,
html-keyboard-response,303,420046,null,"",null,,,,,,,,,,,,,,,
math-period,304,422353,4270.299999952316,"",,,,,,,,,,,0,,,,,
html-keyboard-response,305,422455,null,"",null,,,,,,,,,,,,,,,
math-period,306,423703,2155.9999999403954,"",,,,,,,,,,,3,,,,,
html-keyboard-response,307,423806,null,"",null,,,,,,,,,,,,,,,
math-period,308,424993,2078.099999964237,"",,,,,,,,,,,5,,,,,
html-keyboard-response,309,425095,null,"",null,,,,,,,,,,,,,,,
math-period,310,426053,1760.1000000238419,"",,,,,,,,,,,6,,,,,
html-keyboard-response,311,426156,null,"",null,,,,,,,,,,,,,,,
math-period,312,427333,2022.5,"",,,,,,,,,,,4,,,,,
html-keyboard-response,313,427435,null,"",null,,,,,,,,,,,,,,,
math-period,314,429451,3734.800000011921,"",,,,,,,,,,,0,,,,,
html-keyboard-response,315,429553,null,"",null,,,,,,,,,,,,,,,
math-period,316,430690,1931.4999999403954,"",,,,,,,,,,,4,,,,,
html-keyboard-response,317,430792,null,"",null,,,,,,,,,,,,,,,
math-period,318,431633,1542.5,"",,,,,,,,,,,4,,,,,
html-keyboard-response,319,431735,null,"",null,,,,,,,,,,,,,,,
math-period,320,433306,2880,"",,,,,,,,,,,2,,,,,
html-keyboard-response,321,433408,null,"",null,,,,,,,,,,,,,,,
math-period,322,434516,1879.4000000357628,"",,,,,,,,,,,3,,,,,
html-keyboard-response,323,434618,null,"",null,,,,,,,,,,,,,,,
math-period,324,435688,1884.1000000238419,"",,,,,,,,,,,4,,,,,
html-keyboard-response,325,435791,null,"",null,,,,,,,,,,,,,,,
math-period,326,436569,null,"",,,,,,,,,,,,,,,,
html-keyboard-response,327,437571,null,"Recall Period!",null,,,,,,,,,,,,,,,
call-function,328,437572,,"",,,,,,,,,,,,,,,,
html-keyboard-response,329,437674,null,"",null,,,,,,,,,,,,,,,
recall-period,330,439034,6431.700000047684,"",,,,,,,,,,,country,,,,,
html-keyboard-response,331,439135,null,"",null,,,,,,,,,,,,,,,
recall-period,332,440312,4243.300000011921,"",,,,,,,,,,,egypt,,,,,
html-keyboard-response,333,440415,null,"",null,,,,,,,,,,,,,,,
recall-period,334,441874,5795.1000000834465,"",,,,,,,,,,,girl,,,,,
html-keyboard-response,335,441977,null,"",null,,,,,,,,,,,,,,,
recall-period,336,444578,14610.400000154972,"",,,,,,,,,,,kidney,,,,,
html-keyboard-response,337,444681,null,"",null,,,,,,,,,,,,,,,
recall-period,338,445922,5702.599999904633,"",,,,,,,,,,,stone,,,,,
html-keyboard-response,339,446024,null,"",null,,,,,,,,,,,,,,,
recall-period,340,452106,43803.59999984503,"",,,,,,,,,,,caboose,,,,,
html-keyboard-response,341,452209,null,"",null,,,,,,,,,,,,,,,
recall-period,342,481728,204163.69999986887,"",,,,,,,,,,,racket,,,,,
html-keyboard-response,343,481829,null,"",null,,,,,,,,,,,,,,,
recall-period,344,512576,null,"",,,,,,,,,,,,,,,,
html-keyboard-response,345,513078,null,"Time's Up!",null,,,,,,,,,,,,,,,
html-keyboard-response,346,519414,6334,"<p> Good job! You have responded correctly to 100% of the trials. </p>
                      <p>Be sure to only press the spacebar if you see a red square, and please keep your accuracy above 80%.</p>
                      <p> Press any key to continue the experiment. </p>",32,,,,,,,,,,,,,,,
html-keyboard-response,347,519936,519.8999999761581,"<div style=""font-size:48px;"">Press any key to begin list 3 of 16 </div>",32,,,,,,,,,,,,,,,
html-keyboard-response,348,522438,null,"<div style=""font-size:60px;"">+</div>",null,,,,,,,,,,,,,,,
html-keyboard-response,349,522640,null,"<div style=""font-size:42px;"">RADISH</div><img id = ""stim"" ><div class = green_square id = bottomsquare></div>",null,encoding,word_square,,,0,bottomsquare,none,true,,,RADISH,2,,,
html-keyboard-response,350,522943,null,"<div style=""font-size:42px;"">RADISH</div>",null,,word,RADISH,,,,,,,,,,,,
html-keyboard-response,351,524444,null,"",null,,word,RADISH,,,,,,,,,,,,
html-keyboard-response,352,524647,null,"<div style=""font-size:42px;"">SICKLE</div><img id = ""stim"" ><div class = red_square id = topsquare></div>",null,encoding,word_square,,,1,topsquare,32,true,,,SICKLE,2,,,
html-keyboard-response,353,524949,115.20000004768372,"<div style=""font-size:42px;"">SICKLE</div>",32,,word,SICKLE,,,,,,,,,,,,
html-keyboard-response,354,526452,null,"",null,,word,SICKLE,,,,,,,,,,,,
html-keyboard-response,355,526654,null,"<div style=""font-size:42px;"">BALLOON</div><img id = ""stim"" ><div class = red_square id = bottomsquare></div>",null,encoding,word_square,,,1,bottomsquare,32,true,,,BALLOON,2,,,
html-keyboard-response,356,526957,null,"<div style=""font-size:42px;"">BALLOON</div>",null,,word,BALLOON,,,,,,,,,,,,
html-keyboard-response,357,528459,0.10000002384185791,"",32,,word,BALLOON,,,,,,,,,,,,
html-keyboard-response,358,528662,null,"<div style=""font-size:42px;"">FROG</div><img id = ""stim"" ><div class = green_square id = topsquare></div>",null,encoding,word_square,,,0,topsquare,none,true,,,FROG,2,,,
html-keyboard-response,359,528964,null,"<div style=""font-size:42px;"">FROG</div>",null,,word,FROG,,,,,,,,,,,,
html-keyboard-response,360,530466,null,"",null,,word,FROG,,,,,,,,,,,,
html-keyboard-response,361,530668,null,"<div style=""font-size:42px;"">ARM</div><img id = ""stim"" ><div class = red_square id = topsquare></div>",null,encoding,word_square,,,1,topsquare,32,true,,,ARM,2,,,
html-keyboard-response,362,530970,127.5,"<div style=""font-size:42px;"">ARM</div>",32,,word,ARM,,,,,,,,,,,,
html-keyboard-response,363,532473,null,"",null,,word,ARM,,,,,,,,,,,,
html-keyboard-response,364,532675,null,"<div style=""font-size:42px;"">TULIP</div><img id = ""stim"" ><div class = red_square id = bottomsquare></div>",null,encoding,word_square,,,1,bottomsquare,32,true,,,TULIP,2,,,
html-keyboard-response,365,532978,275.89999997615814,"<div style=""font-size:42px;"">TULIP</div>",32,,word,TULIP,,,,,,,,,,,,
html-keyboard-response,366,534480,null,"",null,,word,TULIP,,,,,,,,,,,,
html-keyboard-response,367,534682,null,"<div style=""font-size:42px;"">CREVICE</div><img id = ""stim"" ><div class = green_square id = bottomsquare></div>",null,encoding,word_square,,,0,bottomsquare,none,true,,,CREVICE,2,,,
html-keyboard-response,368,534984,null,"<div style=""font-size:42px;"">CREVICE</div>",null,,word,CREVICE,,,,,,,,,,,,
html-keyboard-response,369,536487,null,"",null,,word,CREVICE,,,,,,,,,,,,
html-keyboard-response,370,536689,null,"<div style=""font-size:42px;"">SHIRT</div><img id = ""stim"" ><div class = red_square id = topsquare></div>",null,encoding,word_square,,,1,topsquare,32,true,,,SHIRT,2,,,
html-keyboard-response,371,536992,174.4000000357628,"<div style=""font-size:42px;"">SHIRT</div>",32,,word,SHIRT,,,,,,,,,,,,
html-keyboard-response,372,538494,null,"",null,,word,SHIRT,,,,,,,,,,,,
html-keyboard-response,373,538696,null,"<div style=""font-size:42px;"">POSTAGE</div><img id = ""stim"" ><div class = red_square id = bottomsquare></div>",null,encoding,word_square,,,1,bottomsquare,32,true,,,POSTAGE,2,,,
html-keyboard-response,374,538998,143.69999998807907,"<div style=""font-size:42px;"">POSTAGE</div>",32,,word,POSTAGE,,,,,,,,,,,,
html-keyboard-response,375,540500,null,"",null,,word,POSTAGE,,,,,,,,,,,,
html-keyboard-response,376,540703,null,"<div style=""font-size:42px;"">STICKER</div><img id = ""stim"" ><div class = green_square id = topsquare></div>",null,encoding,word_square,,,0,topsquare,none,true,,,STICKER,2,,,
html-keyboard-response,377,541006,null,"<div style=""font-size:42px;"">STICKER</div>",null,,word,STICKER,,,,,,,,,,,,
html-keyboard-response,378,542508,null,"",null,,word,STICKER,,,,,,,,,,,,
html-keyboard-response,379,542710,null,"<div style=""font-size:42px;"">COTTAGE</div><img id = ""stim"" ><div class = green_square id = bottomsquare></div>",null,encoding,word_square,,,0,bottomsquare,none,true,,,COTTAGE,2,,,
html-keyboard-response,380,543012,null,"<div style=""font-size:42px;"">COTTAGE</div>",null,,word,COTTAGE,,,,,,,,,,,,
html-keyboard-response,381,544515,null,"",null,,word,COTTAGE,,,,,,,,,,,,
html-keyboard-response,382,544718,null,"<div style=""font-size:42px;"">TURNIP</div><img id = ""stim"" ><div class = green_square id = topsquare></div>",null,encoding,word_square,,,0,topsquare,none,true,,,TURNIP,2,,,
html-keyboard-response,383,545021,null,"<div style=""font-size:42px;"">TURNIP</div>",null,,word,TURNIP,,,,,,,,,,,,
html-keyboard-response,384,546522,null,"",null,,word,TURNIP,,,,,,,,,,,,
html-keyboard-response,385,546725,null,"<div style=""font-size:42px;"">DRIVER</div><img id = ""stim"" ><div class = red_square id = topsquare></div>",null,encoding,word_square,,,1,topsquare,32,true,,,DRIVER,2,,,
html-keyboard-response,386,547027,165.39999997615814,"<div style=""font-size:42px;"">DRIVER</div>",32,,word,DRIVER,,,,,,,,,,,,
html-keyboard-response,387,548530,null,"",null,,word,DRIVER,,,,,,,,,,,,
html-keyboard-response,388,548733,null,"<div style=""font-size:42px;"">TAXI</div><img id = ""stim"" ><div class = green_square id = bottomsquare></div>",null,encoding,word_square,,,0,bottomsquare,none,true,,,TAXI,2,,,
html-keyboard-response,389,549036,null,"<div style=""font-size:42px;"">TAXI</div>",null,,word,TAXI,,,,,,,,,,,,
html-keyboard-response,390,550539,null,"",null,,word,TAXI,,,,,,,,,,,,
html-keyboard-response,391,550741,null,"<div style=""font-size:42px;"">SKILLET</div><img id = ""stim"" ><div class = green_square id = topsquare></div>",null,encoding,word_square,,,0,topsquare,none,true,,,SKILLET,2,,,
html-keyboard-response,392,551044,null,"<div style=""font-size:42px;"">SKILLET</div>",null,,word,SKILLET,,,,,,,,,,,,
html-keyboard-response,393,552547,null,"",null,,word,SKILLET,,,,,,,,,,,,
html-keyboard-response,394,552749,null,"<div style=""font-size:42px;"">PLANET</div><img id = ""stim"" ><div class = red_square id = bottomsquare></div>",null,encoding,word_square,,,1,bottomsquare,32,true,,,PLANET,2,,,
html-keyboard-response,395,553051,285.5,"<div style=""font-size:42px;"">PLANET</div>",32,,word,PLANET,,,,,,,,,,,,
html-keyboard-response,396,554553,null,"",null,,word,PLANET,,,,,,,,,,,,
call-function,397,554555,,"",,,,,,,,,,,,,,,,
html-keyboard-response,398,554657,null,"",null,,,,,,,,,,,,,,,
math-period,399,557123,4527.300000071526,"",,,,,,,,,,,5,,,,,
html-keyboard-response,400,557227,null,"",null,,,,,,,,,,,,,,,
math-period,401,558119,1585.8999999761581,"",,,,,,,,,,,6,,,,,
html-keyboard-response,402,558221,null,"",null,,,,,,,,,,,,,,,
math-period,403,559388,2047.2999999523163,"",,,,,,,,,,,4,,,,,
html-keyboard-response,404,559490,null,"",null,,,,,,,,,,,,,,,
math-period,405,560744,2218.399999976158,"",,,,,,,,,,,3,,,,,
html-keyboard-response,406,560846,null,"",null,,,,,,,,,,,,,,,
math-period,407,561665,1466.5000000596046,"",,,,,,,,,,,3,,,,,
html-keyboard-response,408,561767,null,"",null,,,,,,,,,,,,,,,
math-period,409,563540,3180.400000035763,"",,,,,,,,,,,1,,,,,
html-keyboard-response,410,563642,null,"",null,,,,,,,,,,,,,,,
math-period,411,564423,1334,"",,,,,,,,,,,2,,,,,
html-keyboard-response,412,564525,null,"",null,,,,,,,,,,,,,,,
math-period,413,565599,1799.6000000238419,"",,,,,,,,,,,4,,,,,
html-keyboard-response,414,565701,null,"",null,,,,,,,,,,,,,,,
math-period,415,567320,2846.100000023842,"",,,,,,,,,,,1,,,,,
html-keyboard-response,416,567423,null,"",null,,,,,,,,,,,,,,,
math-period,417,569003,2835.400000035763,"",,,,,,,,,,,2,,,,,
html-keyboard-response,418,569105,null,"",null,,,,,,,,,,,,,,,
math-period,419,569999,1551.6000000238419,"",,,,,,,,,,,2,,,,,
html-keyboard-response,420,570101,null,"",null,,,,,,,,,,,,,,,
math-period,421,571334,2102.8999999165535,"",,,,,,,,,,,4,,,,,
html-keyboard-response,422,571436,null,"",null,,,,,,,,,,,,,,,
math-period,423,572715,2208.900000035763,"",,,,,,,,,,,6,,,,,
html-keyboard-response,424,572817,null,"",null,,,,,,,,,,,,,,,
math-period,425,574945,7016.800000071526,"",,,,,,,,,,,2,,,,,
html-keyboard-response,426,575047,null,"",null,,,,,,,,,,,,,,,
math-period,427,576930,3346.399999976158,"",,,,,,,,,,,1,,,,,
html-keyboard-response,428,577033,null,"",null,,,,,,,,,,,,,,,
math-period,429,578557,1081.8999999761581,"",,,,,,,,,,,5,,,,,
html-keyboard-response,430,579560,null,"Recall Period!",null,,,,,,,,,,,,,,,
call-function,431,579561,,"",,,,,,,,,,,,,,,,
html-keyboard-response,432,579663,null,"",null,,,,,,,,,,,,,,,
recall-period,433,581060,4852.000000059605,"",,,,,,,,,,,taxi,,,,,
html-keyboard-response,434,581161,null,"",null,,,,,,,,,,,,,,,
recall-period,435,582082,4173.900000095367,"",,,,,,,,,,,driver,,,,,
html-keyboard-response,436,582185,null,"",null,,,,,,,,,,,,,,,
recall-period,437,583163,4200.200000166893,"",,,,,,,,,,,planet,,,,,
html-keyboard-response,438,583265,null,"",null,,,,,,,,,,,,,,,
recall-period,439,585557,11978.399999916553,"",,,,,,,,,,,turnip,,,,,
html-keyboard-response,440,585660,null,"",null,,,,,,,,,,,,,,,
recall-period,441,596395,45047.30000001192,"",,,,,,,,,,,goat,,,,,
html-keyboard-response,442,596498,null,"",null,,,,,,,,,,,,,,,
recall-period,443,615456,143381.30000007153,"",,,,,,,,,,,crevice,,,,,
html-keyboard-response,444,615558,null,"",null,,,,,,,,,,,,,,,
recall-period,445,654564,null,"",,,,,,,,,,,,,,,,
html-keyboard-response,446,655067,null,"Time's Up!",null,,,,,,,,,,,,,,,
html-keyboard-response,447,657060,1990.9000000357628,"<p> Good job! You have responded correctly to 100% of the trials. </p>
                      <p>Be sure to only press the spacebar if you see a red square, and please keep your accuracy above 80%.</p>
                      <p> Press any key to continue the experiment. </p>",32,,,,,,,,,,,,,,,
html-keyboard-response,448,657865,803.6000000238419,"<div style=""font-size:48px;"">Press any key to begin list 4 of 16 </div>",32,,,,,,,,,,,,,,,
html-keyboard-response,449,660367,null,"<div style=""font-size:60px;"">+</div>",null,,,,,,,,,,,,,,,
html-keyboard-response,450,660570,null,"<div style=""font-size:42px;"">TURKEY</div><img id = ""stim"" ><div class = red_square id = bottomsquare></div>",null,encoding,word_square,,,1,bottomsquare,32,true,,,TURKEY,3,,,
html-keyboard-response,451,660874,226.19999998807907,"<div style=""font-size:42px;"">TURKEY</div>",32,,word,TURKEY,,,,,,,,,,,,
html-keyboard-response,452,662376,null,"",null,,word,TURKEY,,,,,,,,,,,,
html-keyboard-response,453,662578,null,"<div style=""font-size:42px;"">MESSAGE</div><img id = ""stim"" ><div class = green_square id = topsquare></div>",null,encoding,word_square,,,0,topsquare,none,true,,,MESSAGE,3,,,
html-keyboard-response,454,662881,null,"<div style=""font-size:42px;"">MESSAGE</div>",null,,word,MESSAGE,,,,,,,,,,,,
html-keyboard-response,455,664384,null,"",null,,word,MESSAGE,,,,,,,,,,,,
html-keyboard-response,456,664588,null,"<div style=""font-size:42px;"">LAKE</div><img id = ""stim"" ><div class = green_square id = bottomsquare></div>",null,encoding,word_square,,,0,bottomsquare,none,true,,,LAKE,3,,,
html-keyboard-response,457,664890,null,"<div style=""font-size:42px;"">LAKE</div>",null,,word,LAKE,,,,,,,,,,,,
html-keyboard-response,458,666392,null,"",null,,word,LAKE,,,,,,,,,,,,
html-keyboard-response,459,666595,null,"<div style=""font-size:42px;"">SUBURB</div><img id = ""stim"" ><div class = red_square id = topsquare></div>",null,encoding,word_square,,,1,topsquare,32,true,,,SUBURB,3,,,
html-keyboard-response,460,666898,252.30000001192093,"<div style=""font-size:42px;"">SUBURB</div>",32,,word,SUBURB,,,,,,,,,,,,
html-keyboard-response,461,668402,null,"",null,,word,SUBURB,,,,,,,,,,,,
html-keyboard-response,462,668605,null,"<div style=""font-size:42px;"">MATCH</div><img id = ""stim"" ><div class = green_square id = topsquare></div>",null,encoding,word_square,,,0,topsquare,none,true,,,MATCH,3,,,
html-keyboard-response,463,668908,null,"<div style=""font-size:42px;"">MATCH</div>",null,,word,MATCH,,,,,,,,,,,,
html-keyboard-response,464,670411,null,"",null,,word,MATCH,,,,,,,,,,,,
html-keyboard-response,465,670613,null,"<div style=""font-size:42px;"">LIGHTNING</div><img id = ""stim"" ><div class = green_square id = bottomsquare></div>",null,encoding,word_square,,,0,bottomsquare,none,true,,,LIGHTNING,3,,,
html-keyboard-response,466,670915,null,"<div style=""font-size:42px;"">LIGHTNING</div>",null,,word,LIGHTNING,,,,,,,,,,,,
html-keyboard-response,467,672416,null,"",null,,word,LIGHTNING,,,,,,,,,,,,
html-keyboard-response,468,672618,null,"<div style=""font-size:42px;"">FINGER</div><img id = ""stim"" ><div class = green_square id = topsquare></div>",null,encoding,word_square,,,0,topsquare,none,true,,,FINGER,3,,,
html-keyboard-response,469,672921,null,"<div style=""font-size:42px;"">FINGER</div>",null,,word,FINGER,,,,,,,,,,,,
html-keyboard-response,470,674423,null,"",null,,word,FINGER,,,,,,,,,,,,
html-keyboard-response,471,674625,null,"<div style=""font-size:42px;"">VAMPIRE</div><img id = ""stim"" ><div class = red_square id = bottomsquare></div>",null,encoding,word_square,,,1,bottomsquare,32,true,,,VAMPIRE,3,,,
html-keyboard-response,472,674928,167.4000000357628,"<div style=""font-size:42px;"">VAMPIRE</div>",32,,word,VAMPIRE,,,,,,,,,,,,
html-keyboard-response,473,676430,null,"",null,,word,VAMPIRE,,,,,,,,,,,,
html-keyboard-response,474,676632,null,"<div style=""font-size:42px;"">BANJO</div><img id = ""stim"" ><div class = red_square id = topsquare></div>",null,encoding,word_square,,,1,topsquare,32,true,,,BANJO,3,,,
html-keyboard-response,475,676934,272.30000001192093,"<div style=""font-size:42px;"">BANJO</div>",32,,word,BANJO,,,,,,,,,,,,
html-keyboard-response,476,678437,null,"",null,,word,BANJO,,,,,,,,,,,,
html-keyboard-response,477,678639,null,"<div style=""font-size:42px;"">WHISTLE</div><img id = ""stim"" ><div class = green_square id = bottomsquare></div>",null,encoding,word_square,,,0,bottomsquare,none,true,,,WHISTLE,3,,,
html-keyboard-response,478,678942,null,"<div style=""font-size:42px;"">WHISTLE</div>",null,,word,WHISTLE,,,,,,,,,,,,
html-keyboard-response,479,680444,null,"",null,,word,WHISTLE,,,,,,,,,,,,
html-keyboard-response,480,680648,null,"<div style=""font-size:42px;"">QUEEN</div><img id = ""stim"" ><div class = red_square id = bottomsquare></div>",null,encoding,word_square,,,1,bottomsquare,32,true,,,QUEEN,3,,,
html-keyboard-response,481,680950,147.10000002384186,"<div style=""font-size:42px;"">QUEEN</div>",32,,word,QUEEN,,,,,,,,,,,,
html-keyboard-response,482,682452,null,"",null,,word,QUEEN,,,,,,,,,,,,
html-keyboard-response,483,682655,null,"<div style=""font-size:42px;"">PRINCESS</div><img id = ""stim"" ><div class = red_square id = topsquare></div>",null,encoding,word_square,,,1,topsquare,32,true,,,PRINCESS,3,,,
html-keyboard-response,484,682957,227.0999999642372,"<div style=""font-size:42px;"">PRINCESS</div>",32,,word,PRINCESS,,,,,,,,,,,,
html-keyboard-response,485,684459,null,"",null,,word,PRINCESS,,,,,,,,,,,,
html-keyboard-response,486,684661,null,"<div style=""font-size:42px;"">DRIVEWAY</div><img id = ""stim"" ><div class = green_square id = topsquare></div>",null,encoding,word_square,,,0,topsquare,none,true,,,DRIVEWAY,3,,,
html-keyboard-response,487,684963,null,"<div style=""font-size:42px;"">DRIVEWAY</div>",null,,word,DRIVEWAY,,,,,,,,,,,,
html-keyboard-response,488,686466,null,"",null,,word,DRIVEWAY,,,,,,,,,,,,
html-keyboard-response,489,686677,null,"<div style=""font-size:42px;"">SEAGULL</div><img id = ""stim"" ><div class = red_square id = bottomsquare></div>",null,encoding,word_square,,,1,bottomsquare,32,true,,,SEAGULL,3,,,
html-keyboard-response,490,686979,157.30000001192093,"<div style=""font-size:42px;"">SEAGULL</div>",32,,word,SEAGULL,,,,,,,,,,,,
html-keyboard-response,491,688481,null,"",null,,word,SEAGULL,,,,,,,,,,,,
html-keyboard-response,492,688685,null,"<div style=""font-size:42px;"">BLANKET</div><img id = ""stim"" ><div class = red_square id = topsquare></div>",null,encoding,word_square,,,1,topsquare,32,true,,,BLANKET,3,,,
html-keyboard-response,493,688988,212.5,"<div style=""font-size:42px;"">BLANKET</div>",32,,word,BLANKET,,,,,,,,,,,,
html-keyboard-response,494,690491,null,"",null,,word,BLANKET,,,,,,,,,,,,
html-keyboard-response,495,690694,null,"<div style=""font-size:42px;"">PORCH</div><img id = ""stim"" ><div class = green_square id = bottomsquare></div>",null,encoding,word_square,,,0,bottomsquare,none,true,,,PORCH,3,,,
html-keyboard-response,496,690996,null,"<div style=""font-size:42px;"">PORCH</div>",null,,word,PORCH,,,,,,,,,,,,
html-keyboard-response,497,692499,null,"",null,,word,PORCH,,,,,,,,,,,,
call-function,498,692500,,"",,,,,,,,,,,,,,,,
html-keyboard-response,499,692603,null,"",null,,,,,,,,,,,,,,,
math-period,500,695260,4937.500000059605,"",,,,,,,,,,,2,,,,,
html-keyboard-response,501,695363,null,"",null,,,,,,,,,,,,,,,
math-period,502,697385,3761.899999976158,"",,,,,,,,,,,1,,,,,
html-keyboard-response,503,697487,null,"",null,,,,,,,,,,,,,,,
math-period,504,699219,5042.199999988079,"",,,,,,,,,,,4,,,,,
html-keyboard-response,505,699321,null,"",null,,,,,,,,,,,,,,,
math-period,506,700632,2313.399999976158,"",,,,,,,,,,,2,,,,,
html-keyboard-response,507,700735,null,"",null,,,,,,,,,,,,,,,
math-period,508,702467,3166.599999964237,"",,,,,,,,,,,1,,,,,
html-keyboard-response,509,702569,null,"",null,,,,,,,,,,,,,,,
math-period,510,704331,5415.500000059605,"",,,,,,,,,,,6,,,,,
html-keyboard-response,511,704433,null,"",null,,,,,,,,,,,,,,,
math-period,512,705795,2137.900000035763,"",,,,,,,,,,,4,,,,,
html-keyboard-response,513,705898,null,"",null,,,,,,,,,,,,,,,
math-period,514,707441,2781.399999976158,"",,,,,,,,,,,1,,,,,
html-keyboard-response,515,707544,null,"",null,,,,,,,,,,,,,,,
math-period,516,710595,15409.300000190735,"",,,,,,,,,,,2,,,,,
html-keyboard-response,517,710698,null,"",null,,,,,,,,,,,,,,,
math-period,518,711789,1928.1000000238419,"",,,,,,,,,,,3,,,,,
html-keyboard-response,519,711891,null,"",null,,,,,,,,,,,,,,,
math-period,520,715058,5998.800000011921,"",,,,,,,,,,,0,,,,,
html-keyboard-response,521,715160,null,"",null,,,,,,,,,,,,,,,
math-period,522,716502,null,"",,,,,,,,,,,,,,,,
html-keyboard-response,523,717505,null,"Recall Period!",null,,,,,,,,,,,,,,,
call-function,524,717506,,"",,,,,,,,,,,,,,,,
html-keyboard-response,525,717608,null,"",null,,,,,,,,,,,,,,,
recall-period,526,719051,5401.5,"",,,,,,,,,,,porch,,,,,
html-keyboard-response,527,719153,null,"",null,,,,,,,,,,,,,,,
recall-period,528,721090,12731.200000166893,"",,,,,,,,,,,princess,,,,,
html-keyboard-response,529,721192,null,"",null,,,,,,,,,,,,,,,
recall-period,530,722300,3747.3999999165535,"",,,,,,,,,,,queen,,,,,
html-keyboard-response,531,722401,null,"",null,,,,,,,,,,,,,,,
recall-period,532,745715,115487.40000009537,"",,,,,,,,,,,lake,,,,,
html-keyboard-response,533,745818,null,"",null,,,,,,,,,,,,,,,
recall-period,534,747388,8502.099999964237,"",,,,,,,,,,,country,,,,,
html-keyboard-response,535,747492,null,"",null,,,,,,,,,,,,,,,
recall-period,536,792508,null,"",,,,,,,,,,,,,,,,
html-keyboard-response,537,793011,null,"Time's Up!",null,,,,,,,,,,,,,,,
html-keyboard-response,538,796716,3703.399999976158,"<p> Good job! You have responded correctly to 100% of the trials. </p>
                      <p>Be sure to only press the spacebar if you see a red square, and please keep your accuracy above 80%.</p>
                      <p> Press any key to continue the experiment. </p>",32,,,,,,,,,,,,,,,
html-keyboard-response,539,799325,2607.099999964237,"<div style=""font-size:48px;"">Press any key to begin list 5 of 16 </div>",32,,,,,,,,,,,,,,,
html-keyboard-response,540,801828,null,"<div style=""font-size:60px;"">+</div>",null,,,,,,,,,,,,,,,
html-keyboard-response,541,802031,null,"<div style=""font-size:42px;"">SHAMPOO</div><img id = ""stim"" ><div class = red_square id = topsquare></div>",null,encoding,word_square,,,1,topsquare,32,true,,,SHAMPOO,4,,,
html-keyboard-response,542,802334,240.10000002384186,"<div style=""font-size:42px;"">SHAMPOO</div>",32,,word,SHAMPOO,,,,,,,,,,,,
html-keyboard-response,543,803838,null,"",null,,word,SHAMPOO,,,,,,,,,,,,
html-keyboard-response,544,804039,null,"<div style=""font-size:42px;"">FRIES</div><img id = ""stim"" ><div class = green_square id = bottomsquare></div>",null,encoding,word_square,,,0,bottomsquare,none,true,,,FRIES,4,,,
html-keyboard-response,545,804341,null,"<div style=""font-size:42px;"">FRIES</div>",null,,word,FRIES,,,,,,,,,,,,
html-keyboard-response,546,805843,null,"",null,,word,FRIES,,,,,,,,,,,,
html-keyboard-response,547,806046,null,"<div style=""font-size:42px;"">FAUCET</div><img id = ""stim"" ><div class = red_square id = bottomsquare></div>",null,encoding,word_square,,,1,bottomsquare,32,true,,,FAUCET,4,,,
html-keyboard-response,548,806348,183.89999997615814,"<div style=""font-size:42px;"">FAUCET</div>",32,,word,FAUCET,,,,,,,,,,,,
html-keyboard-response,549,807850,null,"",null,,word,FAUCET,,,,,,,,,,,,
html-keyboard-response,550,808053,null,"<div style=""font-size:42px;"">SHARK</div><img id = ""stim"" ><div class = green_square id = topsquare></div>",null,encoding,word_square,,,0,topsquare,none,true,,,SHARK,4,,,
html-keyboard-response,551,808354,null,"<div style=""font-size:42px;"">SHARK</div>",null,,word,SHARK,,,,,,,,,,,,
html-keyboard-response,552,809856,null,"",null,,word,SHARK,,,,,,,,,,,,
html-keyboard-response,553,810058,null,"<div style=""font-size:42px;"">BATHTUB</div><img id = ""stim"" ><div class = green_square id = bottomsquare></div>",null,encoding,word_square,,,0,bottomsquare,none,true,,,BATHTUB,4,,,
html-keyboard-response,554,810360,null,"<div style=""font-size:42px;"">BATHTUB</div>",null,,word,BATHTUB,,,,,,,,,,,,
html-keyboard-response,555,811863,null,"",null,,word,BATHTUB,,,,,,,,,,,,
html-keyboard-response,556,812065,null,"<div style=""font-size:42px;"">SERVANT</div><img id = ""stim"" ><div class = red_square id = topsquare></div>",null,encoding,word_square,,,1,topsquare,32,true,,,SERVANT,4,,,
html-keyboard-response,557,812368,282.80000001192093,"<div style=""font-size:42px;"">SERVANT</div>",32,,word,SERVANT,,,,,,,,,,,,
html-keyboard-response,558,813871,null,"",null,,word,SERVANT,,,,,,,,,,,,
html-keyboard-response,559,814074,null,"<div style=""font-size:42px;"">BLACKBOARD</div><img id = ""stim"" ><div class = green_square id = topsquare></div>",null,encoding,word_square,,,0,topsquare,none,true,,,BLACKBOARD,4,,,
html-keyboard-response,560,814378,null,"<div style=""font-size:42px;"">BLACKBOARD</div>",null,,word,BLACKBOARD,,,,,,,,,,,,
html-keyboard-response,561,815881,null,"",null,,word,BLACKBOARD,,,,,,,,,,,,
html-keyboard-response,562,816083,null,"<div style=""font-size:42px;"">PEOPLE</div><img id = ""stim"" ><div class = green_square id = bottomsquare></div>",null,encoding,word_square,,,0,bottomsquare,none,true,,,PEOPLE,4,,,
html-keyboard-response,563,816385,null,"<div style=""font-size:42px;"">PEOPLE</div>",null,,word,PEOPLE,,,,,,,,,,,,
html-keyboard-response,564,817887,null,"",null,,word,PEOPLE,,,,,,,,,,,,
html-keyboard-response,565,818090,null,"<div style=""font-size:42px;"">HOOK</div><img id = ""stim"" ><div class = red_square id = bottomsquare></div>",null,encoding,word_square,,,1,bottomsquare,32,true,,,HOOK,4,,,
html-keyboard-response,566,818392,177.89999997615814,"<div style=""font-size:42px;"">HOOK</div>",32,,word,HOOK,,,,,,,,,,,,
html-keyboard-response,567,819894,null,"",null,,word,HOOK,,,,,,,,,,,,
html-keyboard-response,568,820096,null,"<div style=""font-size:42px;"">TRANSPLANT</div><img id = ""stim"" ><div class = green_square id = topsquare></div>",null,encoding,word_square,,,0,topsquare,none,true,,,TRANSPLANT,4,,,
html-keyboard-response,569,820398,null,"<div style=""font-size:42px;"">TRANSPLANT</div>",null,,word,TRANSPLANT,,,,,,,,,,,,
html-keyboard-response,570,821900,null,"",null,,word,TRANSPLANT,,,,,,,,,,,,
html-keyboard-response,571,822103,null,"<div style=""font-size:42px;"">DONOR</div><img id = ""stim"" ><div class = green_square id = bottomsquare></div>",null,encoding,word_square,,,0,bottomsquare,none,true,,,DONOR,4,,,
html-keyboard-response,572,822406,null,"<div style=""font-size:42px;"">DONOR</div>",null,,word,DONOR,,,,,,,,,,,,
html-keyboard-response,573,823908,null,"",null,,word,DONOR,,,,,,,,,,,,
html-keyboard-response,574,824110,null,"<div style=""font-size:42px;"">WOMAN</div><img id = ""stim"" ><div class = red_square id = topsquare></div>",null,encoding,word_square,,,1,topsquare,32,true,,,WOMAN,4,,,
html-keyboard-response,575,824412,223.4000000357628,"<div style=""font-size:42px;"">WOMAN</div>",32,,word,WOMAN,,,,,,,,,,,,
html-keyboard-response,576,825915,null,"",null,,word,WOMAN,,,,,,,,,,,,
html-keyboard-response,577,826117,null,"<div style=""font-size:42px;"">WASP</div><img id = ""stim"" ><div class = red_square id = bottomsquare></div>",null,encoding,word_square,,,1,bottomsquare,32,true,,,WASP,4,,,
html-keyboard-response,578,826420,null,"<div style=""font-size:42px;"">WASP</div>",null,,word,WASP,,,,,,,,,,,,
html-keyboard-response,579,827922,89.39999997615814,"",32,,word,WASP,,,,,,,,,,,,
html-keyboard-response,580,828125,null,"<div style=""font-size:42px;"">SPIDER</div><img id = ""stim"" ><div class = red_square id = topsquare></div>",null,encoding,word_square,,,1,topsquare,32,true,,,SPIDER,4,,,
html-keyboard-response,581,828428,null,"<div style=""font-size:42px;"">SPIDER</div>",null,,word,SPIDER,,,,,,,,,,,,
html-keyboard-response,582,829930,32.10000002384186,"",32,,word,SPIDER,,,,,,,,,,,,
html-keyboard-response,583,830132,null,"<div style=""font-size:42px;"">FEMALE</div><img id = ""stim"" ><div class = green_square id = topsquare></div>",null,encoding,word_square,,,0,topsquare,none,true,,,FEMALE,4,,,
html-keyboard-response,584,830435,null,"<div style=""font-size:42px;"">FEMALE</div>",null,,word,FEMALE,,,,,,,,,,,,
html-keyboard-response,585,831938,null,"",null,,word,FEMALE,,,,,,,,,,,,
html-keyboard-response,586,832140,null,"<div style=""font-size:42px;"">SLIME</div><img id = ""stim"" ><div class = red_square id = bottomsquare></div>",null,encoding,word_square,,,1,bottomsquare,32,true,,,SLIME,4,,,
html-keyboard-response,587,832442,null,"<div style=""font-size:42px;"">SLIME</div>",null,,word,SLIME,,,,,,,,,,,,
html-keyboard-response,588,833944,67.69999998807907,"",32,,word,SLIME,,,,,,,,,,,,
call-function,589,833946,,"",,,,,,,,,,,,,,,,
html-keyboard-response,590,834048,null,"",null,,,,,,,,,,,,,,,
math-period,591,837268,5383.300000071526,"",,,,,,,,,,,4,,,,,
html-keyboard-response,592,837370,null,"",null,,,,,,,,,,,,,,,
math-period,593,840285,8542.000000059605,"",,,,,,,,,,,0,,,,,
html-keyboard-response,594,840387,null,"",null,,,,,,,,,,,,,,,
math-period,595,841776,2429.9999999403954,"",,,,,,,,,,,2,,,,,
html-keyboard-response,596,841879,null,"",null,,,,,,,,,,,,,,,
math-period,597,843028,1886.4000000357628,"",,,,,,,,,,,5,,,,,
html-keyboard-response,598,843130,null,"",null,,,,,,,,,,,,,,,
math-period,599,844443,2375.1999999284744,"",,,,,,,,,,,5,,,,,
html-keyboard-response,600,844546,null,"",null,,,,,,,,,,,,,,,
math-period,601,845936,2500.099999964237,"",,,,,,,,,,,2,,,,,
html-keyboard-response,602,846039,null,"",null,,,,,,,,,,,,,,,
math-period,603,847439,2456.600000023842,"",,,,,,,,,,,2,,,,,
html-keyboard-response,604,847542,null,"",null,,,,,,,,,,,,,,,
math-period,605,849106,2739.1999999284744,"",,,,,,,,,,,1,,,,,
html-keyboard-response,606,849208,null,"",null,,,,,,,,,,,,,,,
math-period,607,851121,3157.800000011921,"",,,,,,,,,,,2,,,,,
html-keyboard-response,608,851223,null,"",null,,,,,,,,,,,,,,,
math-period,609,853187,3682.300000011921,"",,,,,,,,,,,0,,,,,
html-keyboard-response,610,853290,null,"",null,,,,,,,,,,,,,,,
math-period,611,854775,2605.7999999523163,"",,,,,,,,,,,2,,,,,
html-keyboard-response,612,854878,null,"",null,,,,,,,,,,,,,,,
math-period,613,857948,1419.300000011921,"",,,,,,,,,,,4,,,,,
html-keyboard-response,614,858950,null,"Recall Period!",null,,,,,,,,,,,,,,,
call-function,615,858951,,"",,,,,,,,,,,,,,,,
html-keyboard-response,616,859054,null,"",null,,,,,,,,,,,,,,,
recall-period,617,860583,6689.700000107288,"",,,,,,,,,,,woman,,,,,
html-keyboard-response,618,860685,null,"",null,,,,,,,,,,,,,,,
recall-period,619,861700,3108.100000023842,"",,,,,,,,,,,wasp,,,,,
html-keyboard-response,620,861803,null,"",null,,,,,,,,,,,,,,,
recall-period,621,862654,3600.0000000596046,"",,,,,,,,,,,spider,,,,,
html-keyboard-response,622,862756,null,"",null,,,,,,,,,,,,,,,
recall-period,623,864392,3832,"",,,,,,,,,,,slime,,,,,
html-keyboard-response,624,864496,null,"",null,,,,,,,,,,,,,,,
recall-period,625,865114,1638.8999999165535,"",,,,,,,,,,,girl,,,,,
html-keyboard-response,626,865218,null,"",null,,,,,,,,,,,,,,,
recall-period,627,867929,22192.999999701977,"",,,,,,,,,,,transplant,,,,,
html-keyboard-response,628,868031,null,"",null,,,,,,,,,,,,,,,
recall-period,629,868886,2834.19999986887,"",,,,,,,,,,,organ,,,,,
html-keyboard-response,630,868988,null,"",null,,,,,,,,,,,,,,,
recall-period,631,880058,74810.60000020266,"",,,,,,,,,,,faucet,,,,,
html-keyboard-response,632,880161,null,"",null,,,,,,,,,,,,,,,
recall-period,633,881689,8359.999999761581,"",,,,,,,,,,,bathtub,,,,,
html-keyboard-response,634,881791,null,"",null,,,,,,,,,,,,,,,
recall-period,635,933953,null,"",,,,,,,,,,,,,,,,
html-keyboard-response,636,934455,null,"Time's Up!",null,,,,,,,,,,,,,,,
html-keyboard-response,637,935096,638.8999999761581,"<p> Good job! You have responded correctly to 100% of the trials. </p>
                      <p>Be sure to only press the spacebar if you see a red square, and please keep your accuracy above 80%.</p>
                      <p> Press any key to continue the experiment. </p>",32,,,,,,,,,,,,,,,
html-keyboard-response,638,936042,944.5,"<div style=""font-size:48px;"">Press any key to begin list 6 of 16 </div>",32,,,,,,,,,,,,,,,
html-keyboard-response,639,938546,null,"<div style=""font-size:60px;"">+</div>",null,,,,,,,,,,,,,,,
html-keyboard-response,640,938748,null,"<div style=""font-size:42px;"">NOMAD</div><img id = ""stim"" ><div class = red_square id = bottomsquare></div>",null,encoding,word_square,,,1,bottomsquare,32,true,,,NOMAD,5,,,
html-keyboard-response,641,939051,259.30000001192093,"<div style=""font-size:42px;"">NOMAD</div>",32,,word,NOMAD,,,,,,,,,,,,
html-keyboard-response,642,940554,null,"",null,,word,NOMAD,,,,,,,,,,,,
html-keyboard-response,643,940756,null,"<div style=""font-size:42px;"">SPRINKLE</div><img id = ""stim"" ><div class = green_square id = topsquare></div>",null,encoding,word_square,,,0,topsquare,none,true,,,SPRINKLE,5,,,
html-keyboard-response,644,941059,null,"<div style=""font-size:42px;"">SPRINKLE</div>",null,,word,SPRINKLE,,,,,,,,,,,,
html-keyboard-response,645,942561,null,"",null,,word,SPRINKLE,,,,,,,,,,,,
html-keyboard-response,646,942764,null,"<div style=""font-size:42px;"">CAMEL</div><img id = ""stim"" ><div class = red_square id = topsquare></div>",null,encoding,word_square,,,1,topsquare,32,true,,,CAMEL,5,,,
html-keyboard-response,647,943066,105.39999997615814,"<div style=""font-size:42px;"">CAMEL</div>",32,,word,CAMEL,,,,,,,,,,,,
html-keyboard-response,648,944569,null,"",null,,word,CAMEL,,,,,,,,,,,,
html-keyboard-response,649,944771,null,"<div style=""font-size:42px;"">COFFIN</div><img id = ""stim"" ><div class = red_square id = bottomsquare></div>",null,encoding,word_square,,,1,bottomsquare,32,true,,,COFFIN,5,,,
html-keyboard-response,650,945074,142.19999998807907,"<div style=""font-size:42px;"">COFFIN</div>",32,,word,COFFIN,,,,,,,,,,,,
html-keyboard-response,651,946576,null,"",null,,word,COFFIN,,,,,,,,,,,,
html-keyboard-response,652,946779,null,"<div style=""font-size:42px;"">HOOD</div><img id = ""stim"" ><div class = red_square id = topsquare></div>",null,encoding,word_square,,,1,topsquare,32,true,,,HOOD,5,,,
html-keyboard-response,653,947081,149.5,"<div style=""font-size:42px;"">HOOD</div>",32,,word,HOOD,,,,,,,,,,,,
html-keyboard-response,654,948584,null,"",null,,word,HOOD,,,,,,,,,,,,
html-keyboard-response,655,948787,null,"<div style=""font-size:42px;"">BANDAGE</div><img id = ""stim"" ><div class = green_square id = bottomsquare></div>",null,encoding,word_square,,,0,bottomsquare,none,true,,,BANDAGE,5,,,
html-keyboard-response,656,949090,null,"<div style=""font-size:42px;"">BANDAGE</div>",null,,word,BANDAGE,,,,,,,,,,,,
html-keyboard-response,657,950592,null,"",null,,word,BANDAGE,,,,,,,,,,,,
html-keyboard-response,658,950794,null,"<div style=""font-size:42px;"">NEPTUNE</div><img id = ""stim"" ><div class = green_square id = topsquare></div>",null,encoding,word_square,,,0,topsquare,none,true,,,NEPTUNE,5,,,
html-keyboard-response,659,951096,null,"<div style=""font-size:42px;"">NEPTUNE</div>",null,,word,NEPTUNE,,,,,,,,,,,,
html-keyboard-response,660,952598,null,"",null,,word,NEPTUNE,,,,,,,,,,,,
html-keyboard-response,661,952802,null,"<div style=""font-size:42px;"">CROOK</div><img id = ""stim"" ><div class = red_square id = bottomsquare></div>",null,encoding,word_square,,,1,bottomsquare,32,true,,,CROOK,5,,,
html-keyboard-response,662,953104,162.89999997615814,"<div style=""font-size:42px;"">CROOK</div>",32,,word,CROOK,,,,,,,,,,,,
html-keyboard-response,663,954606,null,"",null,,word,CROOK,,,,,,,,,,,,
html-keyboard-response,664,954809,null,"<div style=""font-size:42px;"">CARROT</div><img id = ""stim"" ><div class = green_square id = bottomsquare></div>",null,encoding,word_square,,,0,bottomsquare,none,true,,,CARROT,5,,,
html-keyboard-response,665,955112,null,"<div style=""font-size:42px;"">CARROT</div>",null,,word,CARROT,,,,,,,,,,,,
html-keyboard-response,666,956614,null,"",null,,word,CARROT,,,,,,,,,,,,
html-keyboard-response,667,956817,null,"<div style=""font-size:42px;"">PISTON</div><img id = ""stim"" ><div class = green_square id = topsquare></div>",null,encoding,word_square,,,0,topsquare,none,true,,,PISTON,5,,,
html-keyboard-response,668,957119,null,"<div style=""font-size:42px;"">PISTON</div>",null,,word,PISTON,,,,,,,,,,,,
html-keyboard-response,669,958622,null,"",null,,word,PISTON,,,,,,,,,,,,
html-keyboard-response,670,958824,null,"<div style=""font-size:42px;"">BEAST</div><img id = ""stim"" ><div class = red_square id = topsquare></div>",null,encoding,word_square,,,1,topsquare,32,true,,,BEAST,5,,,
html-keyboard-response,671,959127,253.9000000357628,"<div style=""font-size:42px;"">BEAST</div>",32,,word,BEAST,,,,,,,,,,,,
html-keyboard-response,672,960629,null,"",null,,word,BEAST,,,,,,,,,,,,
html-keyboard-response,673,960832,null,"<div style=""font-size:42px;"">OMELET</div><img id = ""stim"" ><div class = green_square id = bottomsquare></div>",null,encoding,word_square,,,0,bottomsquare,none,true,,,OMELET,5,,,
html-keyboard-response,674,961134,null,"<div style=""font-size:42px;"">OMELET</div>",null,,word,OMELET,,,,,,,,,,,,
html-keyboard-response,675,962637,null,"",null,,word,OMELET,,,,,,,,,,,,
html-keyboard-response,676,962839,null,"<div style=""font-size:42px;"">YOLK</div><img id = ""stim"" ><div class = green_square id = topsquare></div>",null,encoding,word_square,,,0,topsquare,none,true,,,YOLK,5,,,
html-keyboard-response,677,963141,null,"<div style=""font-size:42px;"">YOLK</div>",null,,word,YOLK,,,,,,,,,,,,
html-keyboard-response,678,964644,null,"",null,,word,YOLK,,,,,,,,,,,,
html-keyboard-response,679,964847,null,"<div style=""font-size:42px;"">BARREL</div><img id = ""stim"" ><div class = red_square id = bottomsquare></div>",null,encoding,word_square,,,1,bottomsquare,32,true,,,BARREL,5,,,
html-keyboard-response,680,965148,298.19999998807907,"<div style=""font-size:42px;"">BARREL</div>",32,,word,BARREL,,,,,,,,,,,,
html-keyboard-response,681,966650,null,"",null,,word,BARREL,,,,,,,,,,,,
html-keyboard-response,682,966852,null,"<div style=""font-size:42px;"">HAMPER</div><img id = ""stim"" ><div class = green_square id = bottomsquare></div>",null,encoding,word_square,,,0,bottomsquare,none,true,,,HAMPER,5,,,
html-keyboard-response,683,967155,null,"<div style=""font-size:42px;"">HAMPER</div>",null,,word,HAMPER,,,,,,,,,,,,
html-keyboard-response,684,968657,null,"",null,,word,HAMPER,,,,,,,,,,,,
html-keyboard-response,685,968859,null,"<div style=""font-size:42px;"">MILDEW</div><img id = ""stim"" ><div class = red_square id = topsquare></div>",null,encoding,word_square,,,1,topsquare,32,true,,,MILDEW,5,,,
html-keyboard-response,686,969161,182,"<div style=""font-size:42px;"">MILDEW</div>",32,,word,MILDEW,,,,,,,,,,,,
html-keyboard-response,687,970664,null,"",null,,word,MILDEW,,,,,,,,,,,,
call-function,688,970665,,"",,,,,,,,,,,,,,,,
html-keyboard-response,689,970767,null,"",null,,,,,,,,,,,,,,,
math-period,690,973420,4800.400000035763,"",,,,,,,,,,,6,,,,,
html-keyboard-response,691,973523,null,"",null,,,,,,,,,,,,,,,
math-period,692,974992,2600.2000000476837,"",,,,,,,,,,,3,,,,,
html-keyboard-response,693,975094,null,"",null,,,,,,,,,,,,,,,
math-period,694,976057,1655.7000000476837,"",,,,,,,,,,,4,,,,,
html-keyboard-response,695,976159,null,"",null,,,,,,,,,,,,,,,
math-period,696,977650,2652.600000023842,"",,,,,,,,,,,2,,,,,
html-keyboard-response,697,977751,null,"",null,,,,,,,,,,,,,,,
math-period,698,978902,1974,"",,,,,,,,,,,4,,,,,
html-keyboard-response,699,979004,null,"",null,,,,,,,,,,,,,,,
math-period,700,980485,2456.7999999523163,"",,,,,,,,,,,2,,,,,
html-keyboard-response,701,980587,null,"",null,,,,,,,,,,,,,,,
math-period,702,981408,1439.6000000238419,"",,,,,,,,,,,3,,,,,
html-keyboard-response,703,981510,null,"",null,,,,,,,,,,,,,,,
math-period,704,982499,1810.9999999403954,"",,,,,,,,,,,3,,,,,
html-keyboard-response,705,982601,null,"",null,,,,,,,,,,,,,,,
math-period,706,983553,1647.800000011921,"",,,,,,,,,,,4,,,,,
html-keyboard-response,707,983655,null,"",null,,,,,,,,,,,,,,,
math-period,708,984297,1121.9999999403954,"",,,,,,,,,,,4,,,,,
html-keyboard-response,709,984399,null,"",null,,,,,,,,,,,,,,,
math-period,710,985470,1927.9999999403954,"",,,,,,,,,,,5,,,,,
html-keyboard-response,711,985572,null,"",null,,,,,,,,,,,,,,,
math-period,712,987954,7736.999999940395,"",,,,,,,,,,,3,,,,,
html-keyboard-response,713,988057,null,"",null,,,,,,,,,,,,,,,
math-period,714,989433,2345.400000035763,"",,,,,,,,,,,5,,,,,
html-keyboard-response,715,989535,null,"",null,,,,,,,,,,,,,,,
math-period,716,990595,1800.0999999642372,"",,,,,,,,,,,3,,,,,
html-keyboard-response,717,990697,null,"",null,,,,,,,,,,,,,,,
math-period,718,991580,1566.7000000476837,"",,,,,,,,,,,4,,,,,
html-keyboard-response,719,991682,null,"",null,,,,,,,,,,,,,,,
math-period,720,992473,1387.8999999761581,"",,,,,,,,,,,3,,,,,
html-keyboard-response,721,992575,null,"",null,,,,,,,,,,,,,,,
math-period,722,994013,2587,"",,,,,,,,,,,2,,,,,
html-keyboard-response,723,994114,null,"",null,,,,,,,,,,,,,,,
math-period,724,994667,null,"",,,,,,,,,,,,,,,,
html-keyboard-response,725,995671,null,"Recall Period!",null,,,,,,,,,,,,,,,
call-function,726,995672,,"",,,,,,,,,,,,,,,,
html-keyboard-response,727,995773,null,"",null,,,,,,,,,,,,,,,
recall-period,728,996893,5336.300000071526,"",,,,,,,,,,,omelete,,,,,
html-keyboard-response,729,996996,null,"",null,,,,,,,,,,,,,,,
recall-period,730,998819,7260.799999952316,"",,,,,,,,,,,yolk,,,,,
html-keyboard-response,731,998920,null,"",null,,,,,,,,,,,,,,,
recall-period,732,999955,4121.200000047684,"",,,,,,,,,,,mildew,,,,,
html-keyboard-response,733,1000058,null,"",null,,,,,,,,,,,,,,,
recall-period,734,1032676,218583.0000001788,"",,,,,,,,,,,faucet,,,,,
html-keyboard-response,735,1032778,null,"",null,,,,,,,,,,,,,,,
recall-period,736,1070674,null,"",,,,,,,,,,,,,,,,
html-keyboard-response,737,1071178,null,"Time's Up!",null,,,,,,,,,,,,,,,
html-keyboard-response,738,1078255,7074.699999988079,"<p> Good job! You have responded correctly to 100% of the trials. </p>
                      <p>Be sure to only press the spacebar if you see a red square, and please keep your accuracy above 80%.</p>
                      <p> Press any key to continue the experiment. </p>",32,,,,,,,,,,,,,,,
html-keyboard-response,739,1080055,1798.300000011921,"<div style=""font-size:48px;"">Press any key to begin list 7 of 16 </div>",32,,,,,,,,,,,,,,,
html-keyboard-response,740,1082558,null,"<div style=""font-size:60px;"">+</div>",null,,,,,,,,,,,,,,,
html-keyboard-response,741,1082760,null,"<div style=""font-size:42px;"">BARLEY</div><img id = ""stim"" ><div class = green_square id = bottomsquare></div>",null,encoding,word_square,,,0,bottomsquare,none,true,,,BARLEY,6,,,
html-keyboard-response,742,1083062,null,"<div style=""font-size:42px;"">BARLEY</div>",null,,word,BARLEY,,,,,,,,,,,,
html-keyboard-response,743,1084565,null,"",null,,word,BARLEY,,,,,,,,,,,,
html-keyboard-response,744,1084768,null,"<div style=""font-size:42px;"">JAPAN</div><img id = ""stim"" ><div class = red_square id = topsquare></div>",null,encoding,word_square,,,1,topsquare,32,true,,,JAPAN,6,,,
html-keyboard-response,745,1085070,130.19999998807907,"<div style=""font-size:42px;"">JAPAN</div>",32,,word,JAPAN,,,,,,,,,,,,
html-keyboard-response,746,1086572,null,"",null,,word,JAPAN,,,,,,,,,,,,
html-keyboard-response,747,1086773,null,"<div style=""font-size:42px;"">EUROPE</div><img id = ""stim"" ><div class = green_square id = topsquare></div>",null,encoding,word_square,,,0,topsquare,none,true,,,EUROPE,6,,,
html-keyboard-response,748,1087076,null,"<div style=""font-size:42px;"">EUROPE</div>",null,,word,EUROPE,,,,,,,,,,,,
html-keyboard-response,749,1088579,null,"",null,,word,EUROPE,,,,,,,,,,,,
html-keyboard-response,750,1088783,null,"<div style=""font-size:42px;"">TOOTHBRUSH</div><img id = ""stim"" ><div class = red_square id = bottomsquare></div>",null,encoding,word_square,,,1,bottomsquare,32,true,,,TOOTHBRUSH,6,,,
html-keyboard-response,751,1089085,183.39999997615814,"<div style=""font-size:42px;"">TOOTHBRUSH</div>",32,,word,TOOTHBRUSH,,,,,,,,,,,,
html-keyboard-response,752,1090587,null,"",null,,word,TOOTHBRUSH,,,,,,,,,,,,
html-keyboard-response,753,1090790,null,"<div style=""font-size:42px;"">OFFICE</div><img id = ""stim"" ><div class = red_square id = topsquare></div>",null,encoding,word_square,,,1,topsquare,32,true,,,OFFICE,6,,,
html-keyboard-response,754,1091092,107.19999998807907,"<div style=""font-size:42px;"">OFFICE</div>",32,,word,OFFICE,,,,,,,,,,,,
html-keyboard-response,755,1092595,null,"",null,,word,OFFICE,,,,,,,,,,,,
html-keyboard-response,756,1092798,null,"<div style=""font-size:42px;"">LILY</div><img id = ""stim"" ><div class = green_square id = bottomsquare></div>",null,encoding,word_square,,,0,bottomsquare,none,true,,,LILY,6,,,
html-keyboard-response,757,1093100,null,"<div style=""font-size:42px;"">LILY</div>",null,,word,LILY,,,,,,,,,,,,
html-keyboard-response,758,1094602,null,"",null,,word,LILY,,,,,,,,,,,,
html-keyboard-response,759,1094805,null,"<div style=""font-size:42px;"">BOUQUET</div><img id = ""stim"" ><div class = red_square id = bottomsquare></div>",null,encoding,word_square,,,1,bottomsquare,32,true,,,BOUQUET,6,,,
html-keyboard-response,760,1095107,131.79999995231628,"<div style=""font-size:42px;"">BOUQUET</div>",32,,word,BOUQUET,,,,,,,,,,,,
html-keyboard-response,761,1096610,null,"",null,,word,BOUQUET,,,,,,,,,,,,
html-keyboard-response,762,1096813,null,"<div style=""font-size:42px;"">RUG</div><img id = ""stim"" ><div class = red_square id = topsquare></div>",null,encoding,word_square,,,1,topsquare,32,true,,,RUG,6,,,
html-keyboard-response,763,1097115,144.5,"<div style=""font-size:42px;"">RUG</div>",32,,word,RUG,,,,,,,,,,,,
html-keyboard-response,764,1098626,null,"",null,,word,RUG,,,,,,,,,,,,
html-keyboard-response,765,1098829,null,"<div style=""font-size:42px;"">STAPLE</div><img id = ""stim"" ><div class = green_square id = topsquare></div>",null,encoding,word_square,,,0,topsquare,none,true,,,STAPLE,6,,,
html-keyboard-response,766,1099132,null,"<div style=""font-size:42px;"">STAPLE</div>",null,,word,STAPLE,,,,,,,,,,,,
html-keyboard-response,767,1100634,null,"",null,,word,STAPLE,,,,,,,,,,,,
html-keyboard-response,768,1100837,null,"<div style=""font-size:42px;"">PAPER</div><img id = ""stim"" ><div class = red_square id = bottomsquare></div>",null,encoding,word_square,,,1,bottomsquare,32,true,,,PAPER,6,,,
html-keyboard-response,769,1101139,199.9000000357628,"<div style=""font-size:42px;"">PAPER</div>",32,,word,PAPER,,,,,,,,,,,,
html-keyboard-response,770,1102641,null,"",null,,word,PAPER,,,,,,,,,,,,
html-keyboard-response,771,1102845,null,"<div style=""font-size:42px;"">FOREST</div><img id = ""stim"" ><div class = red_square id = topsquare></div>",null,encoding,word_square,,,1,topsquare,32,true,,,FOREST,6,,,
html-keyboard-response,772,1103157,226.89999997615814,"<div style=""font-size:42px;"">FOREST</div>",32,,word,FOREST,,,,,,,,,,,,
html-keyboard-response,773,1104660,null,"",null,,word,FOREST,,,,,,,,,,,,
html-keyboard-response,774,1104876,null,"<div style=""font-size:42px;"">LUNCH</div><img id = ""stim"" ><div class = green_square id = bottomsquare></div>",null,encoding,word_square,,,0,bottomsquare,none,true,,,LUNCH,6,,,
html-keyboard-response,775,1105178,null,"<div style=""font-size:42px;"">LUNCH</div>",null,,word,LUNCH,,,,,,,,,,,,
html-keyboard-response,776,1106680,null,"",null,,word,LUNCH,,,,,,,,,,,,
html-keyboard-response,777,1106883,null,"<div style=""font-size:42px;"">BLOSSOM</div><img id = ""stim"" ><div class = green_square id = topsquare></div>",null,encoding,word_square,,,0,topsquare,none,true,,,BLOSSOM,6,,,
html-keyboard-response,778,1107186,null,"<div style=""font-size:42px;"">BLOSSOM</div>",null,,word,BLOSSOM,,,,,,,,,,,,
html-keyboard-response,779,1108689,null,"",null,,word,BLOSSOM,,,,,,,,,,,,
html-keyboard-response,780,1108892,null,"<div style=""font-size:42px;"">DRAWER</div><img id = ""stim"" ><div class = green_square id = bottomsquare></div>",null,encoding,word_square,,,0,bottomsquare,none,true,,,DRAWER,6,,,
html-keyboard-response,781,1109195,191.0999999642372,"<div style=""font-size:42px;"">DRAWER</div>",32,,word,DRAWER,,,,,,,,,,,,
html-keyboard-response,782,1110698,null,"",null,,word,DRAWER,,,,,,,,,,,,
html-keyboard-response,783,1110900,null,"<div style=""font-size:42px;"">CEILING</div><img id = ""stim"" ><div class = red_square id = bottomsquare></div>",null,encoding,word_square,,,1,bottomsquare,32,true,,,CEILING,6,,,
html-keyboard-response,784,1111203,null,"<div style=""font-size:42px;"">CEILING</div>",null,,word,CEILING,,,,,,,,,,,,
html-keyboard-response,785,1112705,102.30000001192093,"",32,,word,CEILING,,,,,,,,,,,,
html-keyboard-response,786,1112908,null,"<div style=""font-size:42px;"">LUMBER</div><img id = ""stim"" ><div class = green_square id = topsquare></div>",null,encoding,word_square,,,0,topsquare,none,true,,,LUMBER,6,,,
html-keyboard-response,787,1113210,null,"<div style=""font-size:42px;"">LUMBER</div>",null,,word,LUMBER,,,,,,,,,,,,
html-keyboard-response,788,1114712,null,"",null,,word,LUMBER,,,,,,,,,,,,
call-function,789,1114714,,"",,,,,,,,,,,,,,,,
html-keyboard-response,790,1114817,null,"",null,,,,,,,,,,,,,,,
math-period,791,1117349,4528.299999952316,"",,,,,,,,,,,4,,,,,
html-keyboard-response,792,1117451,null,"",null,,,,,,,,,,,,,,,
math-period,793,1118324,1507.3999999761581,"",,,,,,,,,,,4,,,,,
html-keyboard-response,794,1118426,null,"",null,,,,,,,,,,,,,,,
math-period,795,1121580,10654.399999916553,"",,,,,,,,,,,0,,,,,
html-keyboard-response,796,1121683,null,"",null,,,,,,,,,,,,,,,
math-period,797,1122765,1848.6000000238419,"",,,,,,,,,,,2,,,,,
html-keyboard-response,798,1122869,null,"",null,,,,,,,,,,,,,,,
math-period,799,1124137,2210.899999976158,"",,,,,,,,,,,6,,,,,
html-keyboard-response,800,1124240,null,"",null,,,,,,,,,,,,,,,
math-period,801,1125952,3088,"",,,,,,,,,,,4,,,,,
html-keyboard-response,802,1126054,null,"",null,,,,,,,,,,,,,,,
math-period,803,1127194,1969.199999988079,"",,,,,,,,,,,6,,,,,
html-keyboard-response,804,1127297,null,"",null,,,,,,,,,,,,,,,
math-period,805,1128085,1420.1000000238419,"",,,,,,,,,,,5,,,,,
html-keyboard-response,806,1128188,null,"",null,,,,,,,,,,,,,,,
math-period,807,1130206,6693.300000071526,"",,,,,,,,,,,2,,,,,
html-keyboard-response,808,1130309,null,"",null,,,,,,,,,,,,,,,
math-period,809,1131448,1941,"",,,,,,,,,,,5,,,,,
html-keyboard-response,810,1131550,null,"",null,,,,,,,,,,,,,,,
math-period,811,1132813,2210.5,"",,,,,,,,,,,2,,,,,
html-keyboard-response,812,1132915,null,"",null,,,,,,,,,,,,,,,
math-period,813,1134651,5703.300000071526,"",,,,,,,,,,,4,,,,,
html-keyboard-response,814,1134753,null,"",null,,,,,,,,,,,,,,,
math-period,815,1136129,3793.800000011921,"",,,,,,,,,,,5,,,,,
html-keyboard-response,816,1136231,null,"",null,,,,,,,,,,,,,,,
math-period,817,1137434,2104,"",,,,,,,,,,,2,,,,,
html-keyboard-response,818,1137537,null,"",null,,,,,,,,,,,,,,,
math-period,819,1138515,1673,"",,,,,,,,,,,4,,,,,
html-keyboard-response,820,1138618,null,"",null,,,,,,,,,,,,,,,
math-period,821,1138716,null,"",,,,,,,,,,,,,,,,
html-keyboard-response,822,1139723,null,"Recall Period!",null,,,,,,,,,,,,,,,
call-function,823,1139724,,"",,,,,,,,,,,,,,,,
html-keyboard-response,824,1139825,null,"",null,,,,,,,,,,,,,,,
recall-period,825,1141711,6834.699999809265,"",,,,,,,,,,,bouqet,,,,,
html-keyboard-response,826,1141814,null,"",null,,,,,,,,,,,,,,,
recall-period,827,1142572,1872.199999988079,"",,,,,,,,,,,rug,,,,,
html-keyboard-response,828,1142674,null,"",null,,,,,,,,,,,,,,,
recall-period,829,1143817,4617.600000143051,"",,,,,,,,,,,staple,,,,,
html-keyboard-response,830,1143919,null,"",null,,,,,,,,,,,,,,,
recall-period,831,1144656,2602.7000000476837,"",,,,,,,,,,,paper,,,,,
html-keyboard-response,832,1144758,null,"",null,,,,,,,,,,,,,,,
recall-period,833,1145648,4052.899999976158,"",,,,,,,,,,,ceiling,,,,,
html-keyboard-response,834,1145750,null,"",null,,,,,,,,,,,,,,,
recall-period,835,1214727,null,"",,,,,,,,,,,,,,,,
html-keyboard-response,836,1215230,null,"Time's Up!",null,,,,,,,,,,,,,,,
html-keyboard-response,837,1222233,7000,"<p> Good job! You have responded correctly to 100% of the trials. </p>
                      <p>Be sure to only press the spacebar if you see a red square, and please keep your accuracy above 80%.</p>
                      <p> Press any key to continue the experiment. </p>",32,,,,,,,,,,,,,,,
html-keyboard-response,838,1223899,1664.9000000357628,"<div style=""font-size:48px;"">Press any key to begin list 8 of 16 </div>",32,,,,,,,,,,,,,,,
html-keyboard-response,839,1226402,null,"<div style=""font-size:60px;"">+</div>",null,,,,,,,,,,,,,,,
html-keyboard-response,840,1226605,null,"<div style=""font-size:42px;"">CHEST</div><img id = ""stim"" ><div class = green_square id = topsquare></div>",null,encoding,word_square,,,0,topsquare,none,true,,,CHEST,7,,,
html-keyboard-response,841,1226907,null,"<div style=""font-size:42px;"">CHEST</div>",null,,word,CHEST,,,,,,,,,,,,
html-keyboard-response,842,1228412,null,"",null,,word,CHEST,,,,,,,,,,,,
html-keyboard-response,843,1228615,null,"<div style=""font-size:42px;"">TWEEZERS</div><img id = ""stim"" ><div class = red_square id = bottomsquare></div>",null,encoding,word_square,,,1,bottomsquare,32,true,,,TWEEZERS,7,,,
html-keyboard-response,844,1228918,180.0999999642372,"<div style=""font-size:42px;"">TWEEZERS</div>",32,,word,TWEEZERS,,,,,,,,,,,,
html-keyboard-response,845,1230421,null,"",null,,word,TWEEZERS,,,,,,,,,,,,
html-keyboard-response,846,1230624,null,"<div style=""font-size:42px;"">NEPHEW</div><img id = ""stim"" ><div class = green_square id = bottomsquare></div>",null,encoding,word_square,,,0,bottomsquare,none,true,,,NEPHEW,7,,,
html-keyboard-response,847,1230925,null,"<div style=""font-size:42px;"">NEPHEW</div>",null,,word,NEPHEW,,,,,,,,,,,,
html-keyboard-response,848,1232428,null,"",null,,word,NEPHEW,,,,,,,,,,,,
html-keyboard-response,849,1232631,null,"<div style=""font-size:42px;"">CONTRACT</div><img id = ""stim"" ><div class = green_square id = topsquare></div>",null,encoding,word_square,,,0,topsquare,none,true,,,CONTRACT,7,,,
html-keyboard-response,850,1232934,null,"<div style=""font-size:42px;"">CONTRACT</div>",null,,word,CONTRACT,,,,,,,,,,,,
html-keyboard-response,851,1234438,null,"",null,,word,CONTRACT,,,,,,,,,,,,
html-keyboard-response,852,1234641,null,"<div style=""font-size:42px;"">MUFFIN</div><img id = ""stim"" ><div class = green_square id = bottomsquare></div>",null,encoding,word_square,,,0,bottomsquare,none,true,,,MUFFIN,7,,,
html-keyboard-response,853,1234945,null,"<div style=""font-size:42px;"">MUFFIN</div>",null,,word,MUFFIN,,,,,,,,,,,,
html-keyboard-response,854,1236456,null,"",null,,word,MUFFIN,,,,,,,,,,,,
html-keyboard-response,855,1236659,null,"<div style=""font-size:42px;"">FOOTBALL</div><img id = ""stim"" ><div class = red_square id = topsquare></div>",null,encoding,word_square,,,1,topsquare,32,true,,,FOOTBALL,7,,,
html-keyboard-response,856,1236962,150.39999997615814,"<div style=""font-size:42px;"">FOOTBALL</div>",32,,word,FOOTBALL,,,,,,,,,,,,
html-keyboard-response,857,1238465,null,"",null,,word,FOOTBALL,,,,,,,,,,,,
html-keyboard-response,858,1238668,null,"<div style=""font-size:42px;"">CANDY</div><img id = ""stim"" ><div class = red_square id = bottomsquare></div>",null,encoding,word_square,,,1,bottomsquare,32,true,,,CANDY,7,,,
html-keyboard-response,859,1238970,105.69999998807907,"<div style=""font-size:42px;"">CANDY</div>",32,,word,CANDY,,,,,,,,,,,,
html-keyboard-response,860,1240473,null,"",null,,word,CANDY,,,,,,,,,,,,
html-keyboard-response,861,1240675,null,"<div style=""font-size:42px;"">EAGLE</div><img id = ""stim"" ><div class = green_square id = topsquare></div>",null,encoding,word_square,,,0,topsquare,none,true,,,EAGLE,7,,,
html-keyboard-response,862,1240976,null,"<div style=""font-size:42px;"">EAGLE</div>",null,,word,EAGLE,,,,,,,,,,,,
html-keyboard-response,863,1242479,null,"",null,,word,EAGLE,,,,,,,,,,,,
html-keyboard-response,864,1242683,null,"<div style=""font-size:42px;"">PARROT</div><img id = ""stim"" ><div class = red_square id = topsquare></div>",null,encoding,word_square,,,1,topsquare,32,true,,,PARROT,7,,,
html-keyboard-response,865,1242984,175.5,"<div style=""font-size:42px;"">PARROT</div>",32,,word,PARROT,,,,,,,,,,,,
html-keyboard-response,866,1244487,null,"",null,,word,PARROT,,,,,,,,,,,,
html-keyboard-response,867,1244690,null,"<div style=""font-size:42px;"">SIDEWALK</div><img id = ""stim"" ><div class = red_square id = bottomsquare></div>",null,encoding,word_square,,,1,bottomsquare,32,true,,,SIDEWALK,7,,,
html-keyboard-response,868,1244992,null,"<div style=""font-size:42px;"">SIDEWALK</div>",null,,word,SIDEWALK,,,,,,,,,,,,
html-keyboard-response,869,1246495,0.6000000238418579,"",32,,word,SIDEWALK,,,,,,,,,,,,
html-keyboard-response,870,1246697,null,"<div style=""font-size:42px;"">UMPIRE</div><img id = ""stim"" ><div class = green_square id = bottomsquare></div>",null,encoding,word_square,,,0,bottomsquare,none,true,,,UMPIRE,7,,,
html-keyboard-response,871,1247000,null,"<div style=""font-size:42px;"">UMPIRE</div>",null,,word,UMPIRE,,,,,,,,,,,,
html-keyboard-response,872,1248503,null,"",null,,word,UMPIRE,,,,,,,,,,,,
html-keyboard-response,873,1248706,null,"<div style=""font-size:42px;"">HIKER</div><img id = ""stim"" ><div class = red_square id = topsquare></div>",null,encoding,word_square,,,1,topsquare,32,true,,,HIKER,7,,,
html-keyboard-response,874,1249008,186.0999999642372,"<div style=""font-size:42px;"">HIKER</div>",32,,word,HIKER,,,,,,,,,,,,
html-keyboard-response,875,1250512,null,"",null,,word,HIKER,,,,,,,,,,,,
html-keyboard-response,876,1250715,null,"<div style=""font-size:42px;"">TRIGGER</div><img id = ""stim"" ><div class = red_square id = bottomsquare></div>",null,encoding,word_square,,,1,bottomsquare,32,true,,,TRIGGER,7,,,
html-keyboard-response,877,1251017,212.19999998807907,"<div style=""font-size:42px;"">TRIGGER</div>",32,,word,TRIGGER,,,,,,,,,,,,
html-keyboard-response,878,1252521,null,"",null,,word,TRIGGER,,,,,,,,,,,,
html-keyboard-response,879,1252723,null,"<div style=""font-size:42px;"">PEACH</div><img id = ""stim"" ><div class = green_square id = topsquare></div>",null,encoding,word_square,,,0,topsquare,none,true,,,PEACH,7,,,
html-keyboard-response,880,1253026,null,"<div style=""font-size:42px;"">PEACH</div>",null,,word,PEACH,,,,,,,,,,,,
html-keyboard-response,881,1254538,null,"",null,,word,PEACH,,,,,,,,,,,,
html-keyboard-response,882,1254741,null,"<div style=""font-size:42px;"">RUST</div><img id = ""stim"" ><div class = red_square id = topsquare></div>",null,encoding,word_square,,,1,topsquare,32,true,,,RUST,7,,,
html-keyboard-response,883,1255044,235.89999997615814,"<div style=""font-size:42px;"">RUST</div>",32,,word,RUST,,,,,,,,,,,,
html-keyboard-response,884,1256548,null,"",null,,word,RUST,,,,,,,,,,,,
html-keyboard-response,885,1256752,null,"<div style=""font-size:42px;"">CLERK</div><img id = ""stim"" ><div class = green_square id = bottomsquare></div>",null,encoding,word_square,,,0,bottomsquare,none,true,,,CLERK,7,,,
html-keyboard-response,886,1257053,null,"<div style=""font-size:42px;"">CLERK</div>",null,,word,CLERK,,,,,,,,,,,,
html-keyboard-response,887,1258556,null,"",null,,word,CLERK,,,,,,,,,,,,
call-function,888,1258557,,"",,,,,,,,,,,,,,,,
html-keyboard-response,889,1258660,null,"",null,,,,,,,,,,,,,,,
math-period,890,1260487,3384.199999988079,"",,,,,,,,,,,3,,,,,
html-keyboard-response,891,1260589,null,"",null,,,,,,,,,,,,,,,
math-period,892,1261694,1952.5,"",,,,,,,,,,,4,,,,,
html-keyboard-response,893,1261796,null,"",null,,,,,,,,,,,,,,,
math-period,894,1263555,3157.199999988079,"",,,,,,,,,,,1,,,,,
html-keyboard-response,895,1263657,null,"",null,,,,,,,,,,,,,,,
math-period,896,1265412,3311.399999976158,"",,,,,,,,,,,1,,,,,
html-keyboard-response,897,1265514,null,"",null,,,,,,,,,,,,,,,
math-period,898,1267208,5367.499999940395,"",,,,,,,,,,,5,,,,,
html-keyboard-response,899,1267311,null,"",null,,,,,,,,,,,,,,,
math-period,900,1268437,2000.5000000596046,"",,,,,,,,,,,6,,,,,
html-keyboard-response,901,1268540,null,"",null,,,,,,,,,,,,,,,
math-period,902,1270721,4004.9999999403954,"",,,,,,,,,,,0,,,,,
html-keyboard-response,903,1270825,null,"",null,,,,,,,,,,,,,,,
math-period,904,1272599,3011.4999999403954,"",,,,,,,,,,,2,,,,,
html-keyboard-response,905,1272702,null,"",null,,,,,,,,,,,,,,,
math-period,906,1273762,1878.199999988079,"",,,,,,,,,,,3,,,,,
html-keyboard-response,907,1273865,null,"",null,,,,,,,,,,,,,,,
math-period,908,1275312,2511.1999999284744,"",,,,,,,,,,,1,,,,,
html-keyboard-response,909,1275414,null,"",null,,,,,,,,,,,,,,,
math-period,910,1276927,2762.7000000476837,"",,,,,,,,,,,2,,,,,
html-keyboard-response,911,1277029,null,"",null,,,,,,,,,,,,,,,
math-period,912,1278948,3443.099999964237,"",,,,,,,,,,,0,,,,,
html-keyboard-response,913,1279051,null,"",null,,,,,,,,,,,,,,,
math-period,914,1280234,2091.1999999284744,"",,,,,,,,,,,3,,,,,
html-keyboard-response,915,1280337,null,"",null,,,,,,,,,,,,,,,
math-period,916,1281575,2128.599999964237,"",,,,,,,,,,,5,,,,,
html-keyboard-response,917,1281678,null,"",null,,,,,,,,,,,,,,,
math-period,918,1282560,675.6000000238419,"",,,,,,,,,,,5,,,,,
html-keyboard-response,919,1283563,null,"Recall Period!",null,,,,,,,,,,,,,,,
call-function,920,1283564,,"",,,,,,,,,,,,,,,,
html-keyboard-response,921,1283667,null,"",null,,,,,,,,,,,,,,,
recall-period,922,1284966,5496.5,"",,,,,,,,,,,hiker,,,,,
html-keyboard-response,923,1285068,null,"",null,,,,,,,,,,,,,,,
recall-period,924,1286642,9140.200000226498,"",,,,,,,,,,,trigger,,,,,
html-keyboard-response,925,1286744,null,"",null,,,,,,,,,,,,,,,
recall-period,926,1288400,5411.100000143051,"",,,,,,,,,,,peach,,,,,
html-keyboard-response,927,1288502,null,"",null,,,,,,,,,,,,,,,
recall-period,928,1289203,2078.399999856949,"",,,,,,,,,,,rust,,,,,
html-keyboard-response,929,1289306,null,"",null,,,,,,,,,,,,,,,
recall-period,930,1295945,54014.2000002265,"",,,,,,,,,,,parrot,,,,,
html-keyboard-response,931,1296047,null,"",null,,,,,,,,,,,,,,,
recall-period,932,1297033,3774.7000000476837,"",,,,,,,,,,,eagle,,,,,
html-keyboard-response,933,1297135,null,"",null,,,,,,,,,,,,,,,
recall-period,934,1298034,3733.800000011921,"",,,,,,,,,,,nephew,,,,,
html-keyboard-response,935,1298137,null,"",null,,,,,,,,,,,,,,,
recall-period,936,1358567,null,"",,,,,,,,,,,,,,,,
html-keyboard-response,937,1359070,null,"Time's Up!",null,,,,,,,,,,,,,,,
html-keyboard-response,938,1360500,1428,"<p> Good job! You have responded correctly to 100% of the trials. </p>
                      <p>Be sure to only press the spacebar if you see a red square, and please keep your accuracy above 80%.</p>
                      <p> Press any key to continue the experiment. </p>",32,,,,,,,,,,,,,,,
html-keyboard-response,939,1362071,1569,"<div style=""font-size:48px;"">Press any key to begin list 9 of 16 </div>",32,,,,,,,,,,,,,,,
html-keyboard-response,940,1364573,null,"<div style=""font-size:60px;"">+</div>",null,,,,,,,,,,,,,,,
