trial_type,trial_index,time_elapsed,rt,stimulus,key_press,exp_phase,test_part,word,task,targ_cond,sq_pos,correctKeyCode,correct,value,response,Word,List,RecResp,serial_pos,colorChosen
pavlovia,0,5033,,"",,,,,,,,,,,,,,,,
external-html,1,10510,4666,"",,,,,,,,,,,,,,,,
html-keyboard-response,2,12835,2321,"Welcome to the experiment. Press any key to begin.",32,,,,,,,,,,,,,,,
html-keyboard-response,3,20981,8143.300000011921,"<p>You will see a list of words and colored squares in the following task.<p><p>Press the spacebar whenever you see a GREEN square.<p><p>Do not press a key if the square is RED.<p><p>Press the spacebar to continue.</p>",32,,,,,,,,,,,,,,,
html-keyboard-response,4,31655,10171.5,"<p>Please try to remember as many of the words as you can, and try to think about the meaning of each word as it appears.<p><p>After the detection and encoding task you will be asked to solve some math problems for 24 seconds.<p> Please solve as many problems as you can in the time given. <p><p><p>Press the spacebar to continue.</p>",32,,,,,,,,,,,,,,,
html-keyboard-response,5,40222,8062.300000011921,"After solving the math problems, you will be asked to type in as many words <p>from the previous list as you can remember for 75 seconds.<p> If you finish recalling before the 75 seconds are up,<p> just sit tight and try to think of any more words you could have missed. <p><p><p>Press the spacebar to continue.</p>",32,,,,,,,,,,,,,,,
html-keyboard-response,6,51660,10933.399999976158,"There will be 16 lists of words and recall, followed  by<p><p> a recognition phase. The experiment is expected to take up to 90 minutes.<p>We will begin with a brief practice session.<p>Press the spacebar to begin the practice.</p>",32,,,,,,,,,,,,,,,
html-keyboard-response,7,54166,null,"<div style=""font-size:60px;"">+</div>",null,,,,,,,,,,,,,,,
html-keyboard-response,8,54372,null,"<div style=""font-size:42px;"">HAPPY</div><img id = ""stim"" ><div class = red_square id = ""bottomsquare"" ></div>",null,practice,word_square,HAPPY,prac_response,0,Bottom,none,true,,,,,,,
html-keyboard-response,9,54675,null,"<div style=""font-size:42px;"">HAPPY</div>",null,,word,HAPPY,,,,,,,,,,,,
html-keyboard-response,10,56178,null,"",null,,word,HAPPY,,,,,,,,,,,,
html-keyboard-response,11,56381,null,"<div style=""font-size:42px;"">COLD</div><img id = ""stim"" ><div class = green_square id = ""bottomsquare"" ></div>",null,practice,word_square,COLD,prac_response,1,Bottom,32,true,,,,,,,
html-keyboard-response,12,56685,null,"<div style=""font-size:42px;"">COLD</div>",null,,word,COLD,,,,,,,,,,,,
html-keyboard-response,13,58188,5.300000011920929,"",32,,word,COLD,,,,,,,,,,,,
html-keyboard-response,14,58391,null,"<div style=""font-size:42px;"">HEAVY</div><img id = ""stim"" ><div class = green_square id = ""topsquare"" ></div>",null,practice,word_square,HEAVY,prac_response,1,Top,32,true,,,,,,,
html-keyboard-response,15,58693,null,"<div style=""font-size:42px;"">HEAVY</div>",null,,word,HEAVY,,,,,,,,,,,,
html-keyboard-response,16,60196,4.399999976158142,"",32,,word,HEAVY,,,,,,,,,,,,
html-keyboard-response,17,60398,null,"<div style=""font-size:42px;"">FUNNY</div><img id = ""stim"" ><div class = red_square id = ""topsquare"" ></div>",null,practice,word_square,FUNNY,prac_response,0,Top,none,false,,,,,,,
html-keyboard-response,18,60702,null,"<div style=""font-size:42px;"">FUNNY</div>",null,,word,FUNNY,,,,,,,,,,,,
html-keyboard-response,19,62208,161.69999998807907,"",32,,word,FUNNY,,,,,,,,,,,,
html-keyboard-response,20,62410,null,"<div style=""font-size:42px;"">SCARY</div><img id = ""stim"" ><div class = green_square id = ""bottomsquare"" ></div>",null,practice,word_square,SCARY,prac_response,1,Bottom,32,true,,,,,,,
html-keyboard-response,21,62713,272.4000000357628,"<div style=""font-size:42px;"">SCARY</div>",32,,word,SCARY,,,,,,,,,,,,
html-keyboard-response,22,64216,null,"",null,,word,SCARY,,,,,,,,,,,,
html-keyboard-response,23,64420,null,"<div style=""font-size:42px;"">PEACEFUL</div><img id = ""stim"" ><div class = green_square id = ""topsquare"" ></div>",null,practice,word_square,PEACEFUL,prac_response,1,Top,32,true,,,,,,,
html-keyboard-response,24,64722,273.39999997615814,"<div style=""font-size:42px;"">PEACEFUL</div>",32,,word,PEACEFUL,,,,,,,,,,,,
html-keyboard-response,25,66226,null,"",null,,word,PEACEFUL,,,,,,,,,,,,
html-keyboard-response,26,66429,null,"<div style=""font-size:42px;"">LITTLE</div><img id = ""stim"" ><div class = red_square id = ""bottomsquare"" ></div>",null,practice,word_square,LITTLE,prac_response,0,Bottom,none,true,,,,,,,
html-keyboard-response,27,66733,null,"<div style=""font-size:42px;"">LITTLE</div>",null,,word,LITTLE,,,,,,,,,,,,
html-keyboard-response,28,68236,null,"",null,,word,LITTLE,,,,,,,,,,,,
html-keyboard-response,29,68439,null,"<div style=""font-size:42px;"">TIRED</div><img id = ""stim"" ><div class = red_square id = ""topsquare"" ></div>",null,practice,word_square,TIRED,prac_response,0,Top,none,true,,,,,,,
html-keyboard-response,30,68757,null,"<div style=""font-size:42px;"">TIRED</div>",null,,word,TIRED,,,,,,,,,,,,
html-keyboard-response,31,70260,null,"",null,,word,TIRED,,,,,,,,,,,,
html-keyboard-response,32,70463,null,"<div style=""font-size:42px;"">ENTERTAINING</div><img id = ""stim"" ><div class = red_square id = ""bottomsquare"" ></div>",null,practice,word_square,ENTERTAINING,prac_response,0,Bottom,none,true,,,,,,,
html-keyboard-response,33,70766,null,"<div style=""font-size:42px;"">ENTERTAINING</div>",null,,word,ENTERTAINING,,,,,,,,,,,,
html-keyboard-response,34,72270,null,"",null,,word,ENTERTAINING,,,,,,,,,,,,
html-keyboard-response,35,72472,null,"<div style=""font-size:42px;"">GRATEFUL</div><img id = ""stim"" ><div class = green_square id = ""bottomsquare"" ></div>",null,practice,word_square,GRATEFUL,prac_response,1,Bottom,32,true,,,,,,,
html-keyboard-response,36,72774,null,"<div style=""font-size:42px;"">GRATEFUL</div>",null,,word,GRATEFUL,,,,,,,,,,,,
html-keyboard-response,37,74277,36,"",32,,word,GRATEFUL,,,,,,,,,,,,
html-keyboard-response,38,74480,null,"<div style=""font-size:42px;"">LOUD</div><img id = ""stim"" ><div class = red_square id = ""topsquare"" ></div>",null,practice,word_square,LOUD,prac_response,0,Top,none,true,,,,,,,
html-keyboard-response,39,74783,null,"<div style=""font-size:42px;"">LOUD</div>",null,,word,LOUD,,,,,,,,,,,,
html-keyboard-response,40,76286,null,"",null,,word,LOUD,,,,,,,,,,,,
html-keyboard-response,41,76498,null,"<div style=""font-size:42px;"">SMART</div><img id = ""stim"" ><div class = green_square id = ""topsquare"" ></div>",null,practice,word_square,SMART,prac_response,1,Top,32,true,,,,,,,
html-keyboard-response,42,76801,227.39999997615814,"<div style=""font-size:42px;"">SMART</div>",32,,word,SMART,,,,,,,,,,,,
html-keyboard-response,43,78307,null,"",null,,word,SMART,,,,,,,,,,,,
html-keyboard-response,44,78511,null,"<div style=""font-size:42px;"">SMOOTH</div><img id = ""stim"" ><div class = green_square id = ""bottomsquare"" ></div>",null,practice,word_square,SMOOTH,prac_response,1,Bottom,32,true,,,,,,,
html-keyboard-response,45,78813,null,"<div style=""font-size:42px;"">SMOOTH</div>",null,,word,SMOOTH,,,,,,,,,,,,
html-keyboard-response,46,80315,116.10000002384186,"",32,,word,SMOOTH,,,,,,,,,,,,
html-keyboard-response,47,80518,null,"<div style=""font-size:42px;"">DISHONEST</div><img id = ""stim"" ><div class = red_square id = ""bottomsquare"" ></div>",null,practice,word_square,DISHONEST,prac_response,0,Bottom,none,true,,,,,,,
html-keyboard-response,48,80821,null,"<div style=""font-size:42px;"">DISHONEST</div>",null,,word,DISHONEST,,,,,,,,,,,,
html-keyboard-response,49,82324,null,"",null,,word,DISHONEST,,,,,,,,,,,,
html-keyboard-response,50,82527,null,"<div style=""font-size:42px;"">WEALTHY</div><img id = ""stim"" ><div class = green_square id = ""topsquare"" ></div>",null,practice,word_square,WEALTHY,prac_response,1,Top,32,true,,,,,,,
html-keyboard-response,51,82830,null,"<div style=""font-size:42px;"">WEALTHY</div>",null,,word,WEALTHY,,,,,,,,,,,,
html-keyboard-response,52,84333,18.80000001192093,"",32,,word,WEALTHY,,,,,,,,,,,,
html-keyboard-response,53,84535,null,"<div style=""font-size:42px;"">BEAUTIFUL</div><img id = ""stim"" ><div class = red_square id = ""topsquare"" ></div>",null,practice,word_square,BEAUTIFUL,prac_response,0,Top,none,true,,,,,,,
html-keyboard-response,54,84837,null,"<div style=""font-size:42px;"">BEAUTIFUL</div>",null,,word,BEAUTIFUL,,,,,,,,,,,,
html-keyboard-response,55,86340,null,"",null,,word,BEAUTIFUL,,,,,,,,,,,,
html-keyboard-response,56,96280,9937.399999976158,"<p> Good job! You responded correctly to 94% of the trials. </p>
                  <p>Be sure to only press the spacebar if you see a GREEN square, and please keep your accuracy above 80%.</p>
                  <p>We're going to try once more to make sure you understand the task. press any key to continue. </p>",32,,,,,,,,,,,,,,,
html-keyboard-response,57,98670,2387.7999999523163,"<p>You will see a list of words and colored squares in the following task.<p><p>Press the spacebar whenever you see a GREEN square.<p><p>Do not press a key if the square is RED<p><p>Press the spacebar to continue.</p>",32,,,,,,,,,,,,,,,
html-keyboard-response,58,101174,null,"<div style=""font-size:60px;"">+</div>",null,,,,,,,,,,,,,,,
html-keyboard-response,59,101377,null,"<div style=""font-size:42px;"">HAPPY</div><img id = ""stim"" ><div class = red_square id = ""bottomsquare"" ></div>",null,practice2,word_square,HAPPY,prac_response,0,Bottom,none,true,,,,,,,
html-keyboard-response,60,101681,null,"<div style=""font-size:42px;"">HAPPY</div>",null,,word,HAPPY,,,,,,,,,,,,
html-keyboard-response,61,103184,null,"",null,,word,HAPPY,,,,,,,,,,,,
html-keyboard-response,62,103387,null,"<div style=""font-size:42px;"">COLD</div><img id = ""stim"" ><div class = green_square id = ""bottomsquare"" ></div>",null,practice2,word_square,,prac_response,1,Bottom,32,true,,,,,,,
html-keyboard-response,63,103689,241.89999997615814,"<div style=""font-size:42px;"">COLD</div>",32,,word,COLD,,,,,,,,,,,,
html-keyboard-response,64,105193,null,"",null,,word,COLD,,,,,,,,,,,,
html-keyboard-response,65,105396,null,"<div style=""font-size:42px;"">HEAVY</div><img id = ""stim"" ><div class = green_square id = ""topsquare"" ></div>",null,practice2,word_square,,prac_response,1,Top,32,true,,,,,,,
html-keyboard-response,66,105698,290.69999998807907,"<div style=""font-size:42px;"">HEAVY</div>",32,,word,HEAVY,,,,,,,,,,,,
html-keyboard-response,67,107202,null,"",null,,word,HEAVY,,,,,,,,,,,,
html-keyboard-response,68,107404,null,"<div style=""font-size:42px;"">FUNNY</div><img id = ""stim"" ><div class = red_square id = ""topsquare"" ></div>",null,practice2,word_square,,prac_response,0,Top,none,true,,,,,,,
html-keyboard-response,69,107706,null,"<div style=""font-size:42px;"">FUNNY</div>",null,,word,FUNNY,,,,,,,,,,,,
html-keyboard-response,70,109209,null,"",null,,word,FUNNY,,,,,,,,,,,,
html-keyboard-response,71,109413,null,"<div style=""font-size:42px;"">SCARY</div><img id = ""stim"" ><div class = green_square id = ""bottomsquare"" ></div>",null,practice2,word_square,,prac_response,1,Bottom,32,true,,,,,,,
html-keyboard-response,72,109715,183,"<div style=""font-size:42px;"">SCARY</div>",32,,word,SCARY,,,,,,,,,,,,
html-keyboard-response,73,111219,null,"",null,,word,SCARY,,,,,,,,,,,,
html-keyboard-response,74,111424,null,"<div style=""font-size:42px;"">PEACEFUL</div><img id = ""stim"" ><div class = green_square id = ""topsquare"" ></div>",null,practice2,word_square,,prac_response,1,Top,32,true,,,,,,,
html-keyboard-response,75,111728,300.5,"<div style=""font-size:42px;"">PEACEFUL</div>",32,,word,PEACEFUL,,,,,,,,,,,,
html-keyboard-response,76,113231,null,"",null,,word,PEACEFUL,,,,,,,,,,,,
html-keyboard-response,77,113444,null,"<div style=""font-size:42px;"">LITTLE</div><img id = ""stim"" ><div class = red_square id = ""bottomsquare"" ></div>",null,practice2,word_square,LITTLE,prac_response,0,Bottom,none,true,,,,,,,
html-keyboard-response,78,113746,null,"<div style=""font-size:42px;"">LITTLE</div>",null,,word,LITTLE,,,,,,,,,,,,
html-keyboard-response,79,115250,null,"",null,,word,LITTLE,,,,,,,,,,,,
html-keyboard-response,80,115454,null,"<div style=""font-size:42px;"">TIRED</div><img id = ""stim"" ><div class = red_square id = ""topsquare"" ></div>",null,practice2,word_square,,prac_response,0,Top,none,true,,,,,,,
html-keyboard-response,81,115757,null,"<div style=""font-size:42px;"">TIRED</div>",null,,word,TIRED,,,,,,,,,,,,
html-keyboard-response,82,117261,null,"",null,,word,TIRED,,,,,,,,,,,,
html-keyboard-response,83,117464,null,"<div style=""font-size:42px;"">ENTERTAINING</div><img id = ""stim"" ><div class = red_square id = ""bottomsquare"" ></div>",null,practice2,word_square,ENTERTAINING,prac_response,0,Bottom,none,true,,,,,,,
html-keyboard-response,84,117766,null,"<div style=""font-size:42px;"">ENTERTAINING</div>",null,,word,ENTERTAINING,,,,,,,,,,,,
html-keyboard-response,85,119270,null,"",null,,word,ENTERTAINING,,,,,,,,,,,,
html-keyboard-response,86,119474,null,"<div style=""font-size:42px;"">GRATEFUL</div><img id = ""stim"" ><div class = green_square id = ""bottomsquare"" ></div>",null,practice2,word_square,,prac_response,1,Bottom,32,true,,,,,,,
html-keyboard-response,87,119778,198.30000001192093,"<div style=""font-size:42px;"">GRATEFUL</div>",32,,word,GRATEFUL,,,,,,,,,,,,
html-keyboard-response,88,121280,null,"",null,,word,GRATEFUL,,,,,,,,,,,,
html-keyboard-response,89,121483,null,"<div style=""font-size:42px;"">LOUD</div><img id = ""stim"" ><div class = red_square id = ""topsquare"" ></div>",null,practice2,word_square,,prac_response,0,Top,none,true,,,,,,,
html-keyboard-response,90,121785,null,"<div style=""font-size:42px;"">LOUD</div>",null,,word,LOUD,,,,,,,,,,,,
html-keyboard-response,91,123288,null,"",null,,word,LOUD,,,,,,,,,,,,
html-keyboard-response,92,123491,null,"<div style=""font-size:42px;"">SMART</div><img id = ""stim"" ><div class = green_square id = ""topsquare"" ></div>",null,practice2,word_square,,prac_response,1,Top,32,true,,,,,,,
html-keyboard-response,93,123794,187.5,"<div style=""font-size:42px;"">SMART</div>",32,,word,SMART,,,,,,,,,,,,
html-keyboard-response,94,125298,null,"",null,,word,SMART,,,,,,,,,,,,
html-keyboard-response,95,125506,null,"<div style=""font-size:42px;"">SMOOTH</div><img id = ""stim"" ><div class = green_square id = ""bottomsquare"" ></div>",null,practice2,word_square,,prac_response,1,Bottom,32,true,,,,,,,
html-keyboard-response,96,125808,249.80000001192093,"<div style=""font-size:42px;"">SMOOTH</div>",32,,word,SMOOTH,,,,,,,,,,,,
html-keyboard-response,97,127311,null,"",null,,word,SMOOTH,,,,,,,,,,,,
html-keyboard-response,98,127513,null,"<div style=""font-size:42px;"">DISHONEST</div><img id = ""stim"" ><div class = red_square id = ""bottomsquare"" ></div>",null,practice2,word_square,DISHONEST,prac_response,0,Bottom,none,true,,,,,,,
html-keyboard-response,99,127817,null,"<div style=""font-size:42px;"">DISHONEST</div>",null,,word,DISHONEST,,,,,,,,,,,,
html-keyboard-response,100,129321,null,"",null,,word,DISHONEST,,,,,,,,,,,,
html-keyboard-response,101,129527,null,"<div style=""font-size:42px;"">WEALTHY</div><img id = ""stim"" ><div class = green_square id = ""topsquare"" ></div>",null,practice2,word_square,,prac_response,1,Top,32,true,,,,,,,
html-keyboard-response,102,129829,191.5,"<div style=""font-size:42px;"">WEALTHY</div>",32,,word,WEALTHY,,,,,,,,,,,,
html-keyboard-response,103,131332,null,"",null,,word,WEALTHY,,,,,,,,,,,,
html-keyboard-response,104,131535,null,"<div style=""font-size:42px;"">BEAUTIFUL</div><img id = ""stim"" ><div class = red_square id = ""topsquare"" ></div>",null,practice2,word_square,,prac_response,0,Top,none,true,,,,,,,
html-keyboard-response,105,131837,null,"<div style=""font-size:42px;"">BEAUTIFUL</div>",null,,word,BEAUTIFUL,,,,,,,,,,,,
html-keyboard-response,106,133340,null,"",null,,word,BEAUTIFUL,,,,,,,,,,,,
html-keyboard-response,107,137841,4497.199999988079,"<p> Good job! You responded correctly to 100% of the trials. </p>
                    <p>Be sure to only press the spacebar if you see a GREEN square, and please keep your accuracy above 80%.</p>
                    <p>Press any key to begin the math and recall sections. Thank you! </p>",32,,,,,,,,,,,,,,,
call-function,108,137844,,"",,,,,,,,,,,,,,,,
html-keyboard-response,109,137946,null,"",null,,,,,,,,,,,,,,,
math-period,110,144574,10646.699999928474,"",,,,,,,,,,,4,,,,,
html-keyboard-response,111,144677,null,"",null,,,,,,,,,,,,,,,
math-period,112,147506,5233.399999976158,"",,,,,,,,,,,3,,,,,
html-keyboard-response,113,147608,null,"",null,,,,,,,,,,,,,,,
math-period,114,149933,4371.200000047684,"",,,,,,,,,,,4,,,,,
html-keyboard-response,115,150036,null,"",null,,,,,,,,,,,,,,,
math-period,116,151818,3247.5,"",,,,,,,,,,,3,,,,,
html-keyboard-response,117,151920,null,"",null,,,,,,,,,,,,,,,
math-period,118,155351,6385.200000047684,"",,,,,,,,,,,2,,,,,
html-keyboard-response,119,155452,null,"",null,,,,,,,,,,,,,,,
math-period,120,157412,3575.7999999523163,"",,,,,,,,,,,2,,,,,
html-keyboard-response,121,157515,null,"",null,,,,,,,,,,,,,,,
math-period,122,159411,3264.300000011921,"",,,,,,,,,,,3,,,,,
html-keyboard-response,123,159513,null,"",null,,,,,,,,,,,,,,,
math-period,124,161059,2672,"",,,,,,,,,,,3,,,,,
html-keyboard-response,125,161161,null,"",null,,,,,,,,,,,,,,,
math-period,126,161847,null,"",,,,,,,,,,,,,,,,
html-keyboard-response,127,162851,null,"Recall Period!",null,,,,,,,,,,,,,,,
call-function,128,162853,,"",,,,,,,,,,,,,,,,
html-keyboard-response,129,162954,null,"",null,,,,,,,,,,,,,,,
recall-period,130,166964,4007.7000000476837,"",,,,,,,,,,,,,,,,
html-keyboard-response,131,167066,null,"",null,,,,,,,,,,,,,,,
recall-period,132,169323,2254.800000011921,"",,,,,,,,,,,,,,,,
html-keyboard-response,133,169427,null,"",null,,,,,,,,,,,,,,,
recall-period,134,172999,24279.000000178814,"",,,,,,,,,,,beautiful,,,,,
html-keyboard-response,135,173101,null,"",null,,,,,,,,,,,,,,,
recall-period,136,174698,5878.3999999165535,"",,,,,,,,,,,tired,,,,,
html-keyboard-response,137,174804,null,"",null,,,,,,,,,,,,,,,
recall-period,138,178659,32053.000000178814,"",,,,,,,,,,,grateful,,,,,
html-keyboard-response,139,178763,null,"",null,,,,,,,,,,,,,,,
recall-period,140,180747,7084.899999856949,"",,,,,,,,,,,happy,,,,,
html-keyboard-response,141,180850,null,"",null,,,,,,,,,,,,,,,
recall-period,142,188240,90273.19999974966,"",,,,,,,,,,,entertaining,,,,,
html-keyboard-response,143,188344,null,"",null,,,,,,,,,,,,,,,
recall-period,144,196903,62374.19999998808,"",,,,,,,,,,,wealthy,,,,,
html-keyboard-response,145,197005,null,"",null,,,,,,,,,,,,,,,
recall-period,146,219302,171865.4999999404,"",,,,,,,,,,,tired,,,,,
html-keyboard-response,147,219405,null,"",null,,,,,,,,,,,,,,,
recall-period,148,237855,null,"",,,,,,,,,,,,,,,,
html-keyboard-response,149,238359,null,"Time's Up!",null,,,,,,,,,,,,,,,
html-keyboard-response,150,245859,7498.600000023842,"<p>We will now begin the experiment!<p><p>Please try to remember all words from each list.<p><p>Press the spacebar whenever you see a GREEN square.<p><p><p><p>Press the spacebar to begin.</p>",32,,,,,,,,,,,,,,,
html-keyboard-response,151,250547,4186.199999988079,"<div style=""font-size:48px;"">Press any key to begin list 1 of 16 </div>",32,,,,,,,,,,,,,,,
html-keyboard-response,152,253050,null,"<div style=""font-size:60px;"">+</div>",null,,,,,,,,,,,,,,,
html-keyboard-response,153,253274,null,"<div style=""font-size:42px;"">ALMOND</div><img id = ""stim"" ><div class = green_square id = topsquare></div>",null,encoding,word_square,,,1,topsquare,32,true,,,ALMOND,0,,,
html-keyboard-response,154,253578,null,"<div style=""font-size:42px;"">ALMOND</div>",null,,word,ALMOND,,,,,,,,,,,,
html-keyboard-response,155,255081,201.20000004768372,"",32,,word,ALMOND,,,,,,,,,,,,
html-keyboard-response,156,255285,null,"<div style=""font-size:42px;"">RIFLE</div><img id = ""stim"" ><div class = green_square id = bottomsquare></div>",null,encoding,word_square,,,1,bottomsquare,32,true,,,RIFLE,0,,,
html-keyboard-response,157,255588,null,"<div style=""font-size:42px;"">RIFLE</div>",null,,word,RIFLE,,,,,,,,,,,,
html-keyboard-response,158,257090,61.69999998807907,"",32,,word,RIFLE,,,,,,,,,,,,
html-keyboard-response,159,257295,null,"<div style=""font-size:42px;"">JOKER</div><img id = ""stim"" ><div class = green_square id = topsquare></div>",null,encoding,word_square,,,1,topsquare,32,true,,,JOKER,0,,,
html-keyboard-response,160,257598,258.19999998807907,"<div style=""font-size:42px;"">JOKER</div>",32,,word,JOKER,,,,,,,,,,,,
html-keyboard-response,161,259100,null,"",null,,word,JOKER,,,,,,,,,,,,
html-keyboard-response,162,259304,null,"<div style=""font-size:42px;"">TUBA</div><img id = ""stim"" ><div class = red_square id = bottomsquare></div>",null,encoding,word_square,,,0,bottomsquare,none,true,,,TUBA,0,,,
html-keyboard-response,163,259606,null,"<div style=""font-size:42px;"">TUBA</div>",null,,word,TUBA,,,,,,,,,,,,
html-keyboard-response,164,261111,null,"",null,,word,TUBA,,,,,,,,,,,,
html-keyboard-response,165,261314,null,"<div style=""font-size:42px;"">RECORD</div><img id = ""stim"" ><div class = red_square id = topsquare></div>",null,encoding,word_square,,,0,topsquare,none,true,,,RECORD,0,,,
html-keyboard-response,166,261617,null,"<div style=""font-size:42px;"">RECORD</div>",null,,word,RECORD,,,,,,,,,,,,
html-keyboard-response,167,263120,null,"",null,,word,RECORD,,,,,,,,,,,,
html-keyboard-response,168,263323,null,"<div style=""font-size:42px;"">GRAVEL</div><img id = ""stim"" ><div class = green_square id = bottomsquare></div>",null,encoding,word_square,,,1,bottomsquare,32,true,,,GRAVEL,0,,,
html-keyboard-response,169,263640,null,"<div style=""font-size:42px;"">GRAVEL</div>",null,,word,GRAVEL,,,,,,,,,,,,
html-keyboard-response,170,265142,44.60000002384186,"",32,,word,GRAVEL,,,,,,,,,,,,
html-keyboard-response,171,265345,null,"<div style=""font-size:42px;"">BELT</div><img id = ""stim"" ><div class = green_square id = topsquare></div>",null,encoding,word_square,,,1,topsquare,32,true,,,BELT,0,,,
html-keyboard-response,172,265647,249.80000001192093,"<div style=""font-size:42px;"">BELT</div>",32,,word,BELT,,,,,,,,,,,,
html-keyboard-response,173,267151,null,"",null,,word,BELT,,,,,,,,,,,,
html-keyboard-response,174,267355,null,"<div style=""font-size:42px;"">MAGNET</div><img id = ""stim"" ><div class = red_square id = bottomsquare></div>",null,encoding,word_square,,,0,bottomsquare,none,true,,,MAGNET,0,,,
html-keyboard-response,175,267657,null,"<div style=""font-size:42px;"">MAGNET</div>",null,,word,MAGNET,,,,,,,,,,,,
html-keyboard-response,176,269163,null,"",null,,word,MAGNET,,,,,,,,,,,,
html-keyboard-response,177,269367,null,"<div style=""font-size:42px;"">EXPERT</div><img id = ""stim"" ><div class = red_square id = topsquare></div>",null,encoding,word_square,,,0,topsquare,none,true,,,EXPERT,0,,,
html-keyboard-response,178,269675,null,"<div style=""font-size:42px;"">EXPERT</div>",null,,word,EXPERT,,,,,,,,,,,,
html-keyboard-response,179,271176,null,"",null,,word,EXPERT,,,,,,,,,,,,
html-keyboard-response,180,271380,null,"<div style=""font-size:42px;"">TEACHER</div><img id = ""stim"" ><div class = green_square id = bottomsquare></div>",null,encoding,word_square,,,1,bottomsquare,32,true,,,TEACHER,0,,,
html-keyboard-response,181,271682,240.0999999642372,"<div style=""font-size:42px;"">TEACHER</div>",32,,word,TEACHER,,,,,,,,,,,,
html-keyboard-response,182,273185,null,"",null,,word,TEACHER,,,,,,,,,,,,
html-keyboard-response,183,273389,null,"<div style=""font-size:42px;"">INMATE</div><img id = ""stim"" ><div class = red_square id = bottomsquare></div>",null,encoding,word_square,,,0,bottomsquare,none,true,,,INMATE,0,,,
html-keyboard-response,184,273693,null,"<div style=""font-size:42px;"">INMATE</div>",null,,word,INMATE,,,,,,,,,,,,
html-keyboard-response,185,275195,null,"",null,,word,INMATE,,,,,,,,,,,,
html-keyboard-response,186,275399,null,"<div style=""font-size:42px;"">FRIES</div><img id = ""stim"" ><div class = green_square id = topsquare></div>",null,encoding,word_square,,,1,topsquare,32,true,,,FRIES,0,,,
html-keyboard-response,187,275701,null,"<div style=""font-size:42px;"">FRIES</div>",null,,word,FRIES,,,,,,,,,,,,
html-keyboard-response,188,277205,21.19999998807907,"",32,,word,FRIES,,,,,,,,,,,,
html-keyboard-response,189,277407,null,"<div style=""font-size:42px;"">CLOTHES</div><img id = ""stim"" ><div class = red_square id = topsquare></div>",null,encoding,word_square,,,0,topsquare,none,true,,,CLOTHES,0,,,
html-keyboard-response,190,277710,null,"<div style=""font-size:42px;"">CLOTHES</div>",null,,word,CLOTHES,,,,,,,,,,,,
html-keyboard-response,191,279213,null,"",null,,word,CLOTHES,,,,,,,,,,,,
html-keyboard-response,192,279417,null,"<div style=""font-size:42px;"">PISTOL</div><img id = ""stim"" ><div class = green_square id = bottomsquare></div>",null,encoding,word_square,,,1,bottomsquare,32,true,,,PISTOL,0,,,
html-keyboard-response,193,279719,203,"<div style=""font-size:42px;"">PISTOL</div>",32,,word,PISTOL,,,,,,,,,,,,
html-keyboard-response,194,281223,null,"",null,,word,PISTOL,,,,,,,,,,,,
html-keyboard-response,195,281426,null,"<div style=""font-size:42px;"">DIAMOND</div><img id = ""stim"" ><div class = red_square id = bottomsquare></div>",null,encoding,word_square,,,0,bottomsquare,none,true,,,DIAMOND,0,,,
html-keyboard-response,196,281728,null,"<div style=""font-size:42px;"">DIAMOND</div>",null,,word,DIAMOND,,,,,,,,,,,,
html-keyboard-response,197,283231,null,"",null,,word,DIAMOND,,,,,,,,,,,,
html-keyboard-response,198,283435,null,"<div style=""font-size:42px;"">AIRPORT</div><img id = ""stim"" ><div class = red_square id = topsquare></div>",null,encoding,word_square,,,0,topsquare,none,true,,,AIRPORT,0,,,
html-keyboard-response,199,283738,null,"<div style=""font-size:42px;"">AIRPORT</div>",null,,word,AIRPORT,,,,,,,,,,,,
html-keyboard-response,200,285241,null,"",null,,word,AIRPORT,,,,,,,,,,,,
call-function,201,285243,,"",,,,,,,,,,,,,,,,
html-keyboard-response,202,285345,null,"",null,,,,,,,,,,,,,,,
math-period,203,289082,7134,"",,,,,,,,,,,5,,,,,
html-keyboard-response,204,289185,null,"",null,,,,,,,,,,,,,,,
math-period,205,291201,3726.2999999523163,"",,,,,,,,,,,5,,,,,
html-keyboard-response,206,291305,null,"",null,,,,,,,,,,,,,,,
math-period,207,295106,6966.200000047684,"",,,,,,,,,,,0,,,,,
html-keyboard-response,208,295209,null,"",null,,,,,,,,,,,,,,,
math-period,209,297154,3679.2000000476837,"",,,,,,,,,,,2,,,,,
html-keyboard-response,210,297256,null,"",null,,,,,,,,,,,,,,,
math-period,211,301296,7888.600000023842,"",,,,,,,,,,,0,,,,,
html-keyboard-response,212,301398,null,"",null,,,,,,,,,,,,,,,
math-period,213,303046,3123.2000000476837,"",,,,,,,,,,,3,,,,,
html-keyboard-response,214,303149,null,"",null,,,,,,,,,,,,,,,
math-period,215,305134,3792.8999999165535,"",,,,,,,,,,,4,,,,,
html-keyboard-response,216,305237,null,"",null,,,,,,,,,,,,,,,
math-period,217,306522,2339.900000035763,"",,,,,,,,,,,3,,,,,
html-keyboard-response,218,306625,null,"",null,,,,,,,,,,,,,,,
math-period,219,308359,3193.5,"",,,,,,,,,,,5,,,,,
html-keyboard-response,220,308463,null,"",null,,,,,,,,,,,,,,,
math-period,221,309245,null,"",,,,,,,,,,,,,,,,
html-keyboard-response,222,310247,null,"Recall Period!",null,,,,,,,,,,,,,,,
call-function,223,310248,,"",,,,,,,,,,,,,,,,
html-keyboard-response,224,310351,null,"",null,,,,,,,,,,,,,,,
recall-period,225,310491,138.39999997615814,"",,,,,,,,,,,,,,,,
html-keyboard-response,226,310594,null,"",null,,,,,,,,,,,,,,,
recall-period,227,314324,20671.400000035763,"",,,,,,,,,,,almond,,,,,
html-keyboard-response,228,314427,null,"",null,,,,,,,,,,,,,,,
recall-period,229,326623,79354.19999986887,"",,,,,,,,,,,inmate,,,,,
html-keyboard-response,230,326724,null,"",null,,,,,,,,,,,,,,,
recall-period,231,329321,12867.899999856949,"",,,,,,,,,,,pistol,,,,,
html-keyboard-response,232,329425,null,"",null,,,,,,,,,,,,,,,
recall-period,233,353826,141734.9999998808,"",,,,,,,,,,,rifle,,,,,
html-keyboard-response,234,353930,null,"",null,,,,,,,,,,,,,,,
recall-period,235,385250,null,"",,,,,,,,,,,,,,,,
html-keyboard-response,236,385755,null,"Time's Up!",null,,,,,,,,,,,,,,,
html-keyboard-response,237,391120,5362.199999988079,"<p> Good job! You have responded correctly to 100% of the trials. </p>
                      <p>Be sure to only press the spacebar if you see a GREEN square, and please keep your accuracy above 80%.</p>
                      <p> Press any key to continue the experiment. </p>",32,,,,,,,,,,,,,,,
html-keyboard-response,238,393670,2547.599999964237,"<div style=""font-size:48px;"">Press any key to begin list 2 of 16 </div>",32,,,,,,,,,,,,,,,
html-keyboard-response,239,396175,null,"<div style=""font-size:60px;"">+</div>",null,,,,,,,,,,,,,,,
html-keyboard-response,240,396380,null,"<div style=""font-size:42px;"">RAILROAD</div><img id = ""stim"" ><div class = red_square id = topsquare></div>",null,encoding,word_square,,,0,topsquare,none,true,,,RAILROAD,1,,,
html-keyboard-response,241,396683,null,"<div style=""font-size:42px;"">RAILROAD</div>",null,,word,RAILROAD,,,,,,,,,,,,
html-keyboard-response,242,398186,null,"",null,,word,RAILROAD,,,,,,,,,,,,
html-keyboard-response,243,398391,null,"<div style=""font-size:42px;"">TUTU</div><img id = ""stim"" ><div class = red_square id = bottomsquare></div>",null,encoding,word_square,,,0,bottomsquare,none,true,,,TUTU,1,,,
html-keyboard-response,244,398694,null,"<div style=""font-size:42px;"">TUTU</div>",null,,word,TUTU,,,,,,,,,,,,
html-keyboard-response,245,400197,null,"",null,,word,TUTU,,,,,,,,,,,,
html-keyboard-response,246,400400,null,"<div style=""font-size:42px;"">DRESS</div><img id = ""stim"" ><div class = green_square id = bottomsquare></div>",null,encoding,word_square,,,1,bottomsquare,32,true,,,DRESS,1,,,
html-keyboard-response,247,400704,null,"<div style=""font-size:42px;"">DRESS</div>",null,,word,DRESS,,,,,,,,,,,,
html-keyboard-response,248,402208,326.69999998807907,"",32,,word,DRESS,,,,,,,,,,,,
html-keyboard-response,249,402411,null,"<div style=""font-size:42px;"">PRIMATE</div><img id = ""stim"" ><div class = red_square id = topsquare></div>",null,encoding,word_square,,,0,topsquare,none,true,,,PRIMATE,1,,,
html-keyboard-response,250,402714,null,"<div style=""font-size:42px;"">PRIMATE</div>",null,,word,PRIMATE,,,,,,,,,,,,
html-keyboard-response,251,404219,null,"",null,,word,PRIMATE,,,,,,,,,,,,
html-keyboard-response,252,404423,null,"<div style=""font-size:42px;"">RACKET</div><img id = ""stim"" ><div class = green_square id = topsquare></div>",null,encoding,word_square,,,1,topsquare,32,true,,,RACKET,1,,,
html-keyboard-response,253,404727,282.89999997615814,"<div style=""font-size:42px;"">RACKET</div>",32,,word,RACKET,,,,,,,,,,,,
html-keyboard-response,254,406230,null,"",null,,word,RACKET,,,,,,,,,,,,
html-keyboard-response,255,406434,null,"<div style=""font-size:42px;"">STAIRS</div><img id = ""stim"" ><div class = red_square id = bottomsquare></div>",null,encoding,word_square,,,0,bottomsquare,none,true,,,STAIRS,1,,,
html-keyboard-response,256,406737,null,"<div style=""font-size:42px;"">STAIRS</div>",null,,word,STAIRS,,,,,,,,,,,,
html-keyboard-response,257,408241,null,"",null,,word,STAIRS,,,,,,,,,,,,
html-keyboard-response,258,408445,null,"<div style=""font-size:42px;"">MONEY</div><img id = ""stim"" ><div class = green_square id = bottomsquare></div>",null,encoding,word_square,,,1,bottomsquare,32,true,,,MONEY,1,,,
html-keyboard-response,259,408747,null,"<div style=""font-size:42px;"">MONEY</div>",null,,word,MONEY,,,,,,,,,,,,
html-keyboard-response,260,410250,266.30000001192093,"",32,,word,MONEY,,,,,,,,,,,,
html-keyboard-response,261,410454,null,"<div style=""font-size:42px;"">STALLION</div><img id = ""stim"" ><div class = red_square id = topsquare></div>",null,encoding,word_square,,,0,topsquare,none,true,,,STALLION,1,,,
html-keyboard-response,262,410757,null,"<div style=""font-size:42px;"">STALLION</div>",null,,word,STALLION,,,,,,,,,,,,
html-keyboard-response,263,412261,null,"",null,,word,STALLION,,,,,,,,,,,,
html-keyboard-response,264,412465,null,"<div style=""font-size:42px;"">MARROW</div><img id = ""stim"" ><div class = red_square id = bottomsquare></div>",null,encoding,word_square,,,0,bottomsquare,none,true,,,MARROW,1,,,
html-keyboard-response,265,412767,null,"<div style=""font-size:42px;"">MARROW</div>",null,,word,MARROW,,,,,,,,,,,,
html-keyboard-response,266,414270,null,"",null,,word,MARROW,,,,,,,,,,,,
html-keyboard-response,267,414474,null,"<div style=""font-size:42px;"">BACKBONE</div><img id = ""stim"" ><div class = green_square id = topsquare></div>",null,encoding,word_square,,,1,topsquare,32,true,,,BACKBONE,1,,,
html-keyboard-response,268,414777,null,"<div style=""font-size:42px;"">BACKBONE</div>",null,,word,BACKBONE,,,,,,,,,,,,
html-keyboard-response,269,416281,26.099999964237213,"",32,,word,BACKBONE,,,,,,,,,,,,
html-keyboard-response,270,416485,null,"<div style=""font-size:42px;"">POND</div><img id = ""stim"" ><div class = green_square id = bottomsquare></div>",null,encoding,word_square,,,1,bottomsquare,32,true,,,POND,1,,,
html-keyboard-response,271,416787,null,"<div style=""font-size:42px;"">POND</div>",null,,word,POND,,,,,,,,,,,,
html-keyboard-response,272,418291,545.5,"",32,,word,POND,,,,,,,,,,,,
html-keyboard-response,273,418495,null,"<div style=""font-size:42px;"">JUGGLER</div><img id = ""stim"" ><div class = red_square id = topsquare></div>",null,encoding,word_square,,,0,topsquare,none,true,,,JUGGLER,1,,,
html-keyboard-response,274,418799,null,"<div style=""font-size:42px;"">JUGGLER</div>",null,,word,JUGGLER,,,,,,,,,,,,
html-keyboard-response,275,420302,null,"",null,,word,JUGGLER,,,,,,,,,,,,
html-keyboard-response,276,420506,null,"<div style=""font-size:42px;"">GYMNAST</div><img id = ""stim"" ><div class = red_square id = bottomsquare></div>",null,encoding,word_square,,,0,bottomsquare,none,true,,,GYMNAST,1,,,
html-keyboard-response,277,420810,null,"<div style=""font-size:42px;"">GYMNAST</div>",null,,word,GYMNAST,,,,,,,,,,,,
html-keyboard-response,278,422313,null,"",null,,word,GYMNAST,,,,,,,,,,,,
html-keyboard-response,279,422521,null,"<div style=""font-size:42px;"">COMET</div><img id = ""stim"" ><div class = green_square id = topsquare></div>",null,encoding,word_square,,,1,topsquare,32,true,,,COMET,1,,,
html-keyboard-response,280,422825,195.9000000357628,"<div style=""font-size:42px;"">COMET</div>",32,,word,COMET,,,,,,,,,,,,
html-keyboard-response,281,424329,null,"",null,,word,COMET,,,,,,,,,,,,
html-keyboard-response,282,424535,null,"<div style=""font-size:42px;"">GIRL</div><img id = ""stim"" ><div class = green_square id = bottomsquare></div>",null,encoding,word_square,,,1,bottomsquare,32,true,,,GIRL,1,,,
html-keyboard-response,283,424838,null,"<div style=""font-size:42px;"">GIRL</div>",null,,word,GIRL,,,,,,,,,,,,
html-keyboard-response,284,426341,327,"",32,,word,GIRL,,,,,,,,,,,,
html-keyboard-response,285,426544,null,"<div style=""font-size:42px;"">MAPLE</div><img id = ""stim"" ><div class = green_square id = topsquare></div>",null,encoding,word_square,,,1,topsquare,32,true,,,MAPLE,1,,,
html-keyboard-response,286,426847,null,"<div style=""font-size:42px;"">MAPLE</div>",null,,word,MAPLE,,,,,,,,,,,,
html-keyboard-response,287,428351,596.6999999880791,"",32,,word,MAPLE,,,,,,,,,,,,
call-function,288,428353,,"",,,,,,,,,,,,,,,,
html-keyboard-response,289,428456,null,"",null,,,,,,,,,,,,,,,
math-period,290,436122,15022.5,"",,,,,,,,,,,3,,,,,
html-keyboard-response,291,436230,null,"",null,,,,,,,,,,,,,,,
math-period,292,438971,5165.399999976158,"",,,,,,,,,,,2,,,,,
html-keyboard-response,293,439075,null,"",null,,,,,,,,,,,,,,,
math-period,294,441731,5065.1000000834465,"",,,,,,,,,,,4,,,,,
html-keyboard-response,295,441834,null,"",null,,,,,,,,,,,,,,,
math-period,296,444326,4774.099999904633,"",,,,,,,,,,,4,,,,,
html-keyboard-response,297,444430,null,"",null,,,,,,,,,,,,,,,
math-period,298,446146,3250.5000000596046,"",,,,,,,,,,,6,,,,,
html-keyboard-response,299,446250,null,"",null,,,,,,,,,,,,,,,
math-period,300,447644,2600.9999999403954,"",,,,,,,,,,,3,,,,,
html-keyboard-response,301,447748,null,"",null,,,,,,,,,,,,,,,
math-period,302,450211,4747.1000000834465,"",,,,,,,,,,,1,,,,,
html-keyboard-response,303,450314,null,"",null,,,,,,,,,,,,,,,
math-period,304,452238,3453.2999999523163,"",,,,,,,,,,,6,,,,,
html-keyboard-response,305,452341,null,"",null,,,,,,,,,,,,,,,
math-period,306,452359,null,"",,,,,,,,,,,,,,,,
html-keyboard-response,307,453363,null,"Recall Period!",null,,,,,,,,,,,,,,,
call-function,308,453364,,"",,,,,,,,,,,,,,,,
html-keyboard-response,309,453467,null,"",null,,,,,,,,,,,,,,,
recall-period,310,463064,158968.50000053644,"",,,,,,,,,,,tut,,,,,
html-keyboard-response,311,463167,null,"",null,,,,,,,,,,,,,,,
recall-period,312,464814,6270.30000013113,"",,,,,,,,,,,tutu,,,,,
html-keyboard-response,313,464916,null,"",null,,,,,,,,,,,,,,,
recall-period,314,467165,10326.100000083447,"",,,,,,,,,,,dress,,,,,
html-keyboard-response,315,467267,null,"",null,,,,,,,,,,,,,,,
recall-period,316,469784,12009,"",,,,,,,,,,,racket,,,,,
html-keyboard-response,317,469886,null,"",null,,,,,,,,,,,,,,,
recall-period,318,476921,70594.69999980927,"",,,,,,,,,,,maple,,,,,
html-keyboard-response,319,477024,null,"",null,,,,,,,,,,,,,,,
recall-period,320,479647,9082.299999892712,"",,,,,,,,,,,girl,,,,,
html-keyboard-response,321,479751,null,"",null,,,,,,,,,,,,,,,
recall-period,322,482113,8979.600000083447,"",,,,,,,,,,,pond,,,,,
html-keyboard-response,323,482216,null,"",null,,,,,,,,,,,,,,,
recall-period,324,488758,70617.80000001192,"",,,,,,,,,,,gymnast,,,,,
html-keyboard-response,325,488861,null,"",null,,,,,,,,,,,,,,,
recall-period,326,492855,27415.199999928474,"",,,,,,,,,,,backbone,,,,,
html-keyboard-response,327,492957,null,"",null,,,,,,,,,,,,,,,
recall-period,328,495797,12887.900000154972,"",,,,,,,,,,,money,,,,,
html-keyboard-response,329,495900,null,"",null,,,,,,,,,,,,,,,
recall-period,330,499804,17025.399999976158,"",,,,,,,,,,,stairs,,,,,
html-keyboard-response,331,499907,null,"",null,,,,,,,,,,,,,,,
recall-period,332,502963,15071.099999785423,"",,,,,,,,,,,marrow,,,,,
html-keyboard-response,333,503065,null,"",null,,,,,,,,,,,,,,,
recall-period,334,508424,29000.69999986887,"",,,,,,,,,,,racket,,,,,
html-keyboard-response,335,508528,null,"",null,,,,,,,,,,,,,,,
recall-period,336,517956,76773.09999984503,"",,,,,,,,,,,railroad,,,,,
html-keyboard-response,337,518060,null,"",null,,,,,,,,,,,,,,,
recall-period,338,528368,null,"",,,,,,,,,,,,,,,,
html-keyboard-response,339,528874,null,"Time's Up!",null,,,,,,,,,,,,,,,
html-keyboard-response,340,539310,10432.699999988079,"<p> Good job! You have responded correctly to 100% of the trials. </p>
                      <p>Be sure to only press the spacebar if you see a GREEN square, and please keep your accuracy above 80%.</p>
                      <p> Press any key to continue the experiment. </p>",32,,,,,,,,,,,,,,,
html-keyboard-response,341,542148,2834.899999976158,"<div style=""font-size:48px;"">Press any key to begin list 3 of 16 </div>",32,,,,,,,,,,,,,,,
html-keyboard-response,342,544652,null,"<div style=""font-size:60px;"">+</div>",null,,,,,,,,,,,,,,,
html-keyboard-response,343,544856,null,"<div style=""font-size:42px;"">LAVA</div><img id = ""stim"" ><div class = red_square id = bottomsquare></div>",null,encoding,word_square,,,0,bottomsquare,none,true,,,LAVA,2,,,
html-keyboard-response,344,545159,null,"<div style=""font-size:42px;"">LAVA</div>",null,,word,LAVA,,,,,,,,,,,,
html-keyboard-response,345,546662,null,"",null,,word,LAVA,,,,,,,,,,,,
html-keyboard-response,346,546864,null,"<div style=""font-size:42px;"">HOUND</div><img id = ""stim"" ><div class = red_square id = topsquare></div>",null,encoding,word_square,,,0,topsquare,none,true,,,HOUND,2,,,
html-keyboard-response,347,547167,null,"<div style=""font-size:42px;"">HOUND</div>",null,,word,HOUND,,,,,,,,,,,,
html-keyboard-response,348,548670,null,"",null,,word,HOUND,,,,,,,,,,,,
html-keyboard-response,349,548873,null,"<div style=""font-size:42px;"">FOSSIL</div><img id = ""stim"" ><div class = red_square id = bottomsquare></div>",null,encoding,word_square,,,0,bottomsquare,none,true,,,FOSSIL,2,,,
html-keyboard-response,350,549176,null,"<div style=""font-size:42px;"">FOSSIL</div>",null,,word,FOSSIL,,,,,,,,,,,,
html-keyboard-response,351,550680,null,"",null,,word,FOSSIL,,,,,,,,,,,,
html-keyboard-response,352,550884,null,"<div style=""font-size:42px;"">DUSTPAN</div><img id = ""stim"" ><div class = green_square id = topsquare></div>",null,encoding,word_square,,,1,topsquare,32,true,,,DUSTPAN,2,,,
html-keyboard-response,353,551189,null,"<div style=""font-size:42px;"">DUSTPAN</div>",null,,word,DUSTPAN,,,,,,,,,,,,
html-keyboard-response,354,552696,228.80000001192093,"",32,,word,DUSTPAN,,,,,,,,,,,,
html-keyboard-response,355,552900,null,"<div style=""font-size:42px;"">RAISIN</div><img id = ""stim"" ><div class = green_square id = bottomsquare></div>",null,encoding,word_square,,,1,bottomsquare,32,true,,,RAISIN,2,,,
html-keyboard-response,356,553206,null,"<div style=""font-size:42px;"">RAISIN</div>",null,,word,RAISIN,,,,,,,,,,,,
html-keyboard-response,357,554709,316.5,"",32,,word,RAISIN,,,,,,,,,,,,
html-keyboard-response,358,554912,null,"<div style=""font-size:42px;"">PLIERS</div><img id = ""stim"" ><div class = red_square id = topsquare></div>",null,encoding,word_square,,,0,topsquare,none,true,,,PLIERS,2,,,
html-keyboard-response,359,555216,null,"<div style=""font-size:42px;"">PLIERS</div>",null,,word,PLIERS,,,,,,,,,,,,
html-keyboard-response,360,556720,null,"",null,,word,PLIERS,,,,,,,,,,,,
html-keyboard-response,361,556925,null,"<div style=""font-size:42px;"">CHAUFFEUR</div><img id = ""stim"" ><div class = red_square id = bottomsquare></div>",null,encoding,word_square,,,0,bottomsquare,none,false,,,CHAUFFEUR,2,,,
html-keyboard-response,362,557230,null,"<div style=""font-size:42px;"">CHAUFFEUR</div>",null,,word,CHAUFFEUR,,,,,,,,,,,,
html-keyboard-response,363,558732,654.2999999523163,"",32,,word,CHAUFFEUR,,,,,,,,,,,,
html-keyboard-response,364,558936,null,"<div style=""font-size:42px;"">GIFT</div><img id = ""stim"" ><div class = green_square id = topsquare></div>",null,encoding,word_square,,,1,topsquare,32,true,,,GIFT,2,,,
html-keyboard-response,365,559239,225,"<div style=""font-size:42px;"">GIFT</div>",32,,word,GIFT,,,,,,,,,,,,
html-keyboard-response,366,560742,null,"",null,,word,GIFT,,,,,,,,,,,,
html-keyboard-response,367,560944,null,"<div style=""font-size:42px;"">FRAME</div><img id = ""stim"" ><div class = green_square id = bottomsquare></div>",null,encoding,word_square,,,1,bottomsquare,32,true,,,FRAME,2,,,
html-keyboard-response,368,561248,null,"<div style=""font-size:42px;"">FRAME</div>",null,,word,FRAME,,,,,,,,,,,,
html-keyboard-response,369,562752,532,"",32,,word,FRAME,,,,,,,,,,,,
html-keyboard-response,370,562956,null,"<div style=""font-size:42px;"">SOFTBALL</div><img id = ""stim"" ><div class = red_square id = topsquare></div>",null,encoding,word_square,,,0,topsquare,none,true,,,SOFTBALL,2,,,
html-keyboard-response,371,563260,null,"<div style=""font-size:42px;"">SOFTBALL</div>",null,,word,SOFTBALL,,,,,,,,,,,,
html-keyboard-response,372,564764,null,"",null,,word,SOFTBALL,,,,,,,,,,,,
html-keyboard-response,373,564968,null,"<div style=""font-size:42px;"">LACE</div><img id = ""stim"" ><div class = green_square id = topsquare></div>",null,encoding,word_square,,,1,topsquare,32,true,,,LACE,2,,,
html-keyboard-response,374,565271,null,"<div style=""font-size:42px;"">LACE</div>",null,,word,LACE,,,,,,,,,,,,
html-keyboard-response,375,566773,375.10000002384186,"",32,,word,LACE,,,,,,,,,,,,
html-keyboard-response,376,566976,null,"<div style=""font-size:42px;"">SNORKEL</div><img id = ""stim"" ><div class = red_square id = bottomsquare></div>",null,encoding,word_square,,,0,bottomsquare,none,true,,,SNORKEL,2,,,
html-keyboard-response,377,567281,null,"<div style=""font-size:42px;"">SNORKEL</div>",null,,word,SNORKEL,,,,,,,,,,,,
html-keyboard-response,378,568785,null,"",null,,word,SNORKEL,,,,,,,,,,,,
html-keyboard-response,379,568990,null,"<div style=""font-size:42px;"">CRICKET</div><img id = ""stim"" ><div class = green_square id = bottomsquare></div>",null,encoding,word_square,,,1,bottomsquare,32,true,,,CRICKET,2,,,
html-keyboard-response,380,569294,null,"<div style=""font-size:42px;"">CRICKET</div>",null,,word,CRICKET,,,,,,,,,,,,
html-keyboard-response,381,570798,162,"",32,,word,CRICKET,,,,,,,,,,,,
html-keyboard-response,382,571002,null,"<div style=""font-size:42px;"">HEART</div><img id = ""stim"" ><div class = red_square id = topsquare></div>",null,encoding,word_square,,,0,topsquare,none,true,,,HEART,2,,,
html-keyboard-response,383,571306,null,"<div style=""font-size:42px;"">HEART</div>",null,,word,HEART,,,,,,,,,,,,
html-keyboard-response,384,572808,null,"",null,,word,HEART,,,,,,,,,,,,
html-keyboard-response,385,573011,null,"<div style=""font-size:42px;"">DONOR</div><img id = ""stim"" ><div class = green_square id = topsquare></div>",null,encoding,word_square,,,1,topsquare,32,true,,,DONOR,2,,,
html-keyboard-response,386,573314,null,"<div style=""font-size:42px;"">DONOR</div>",null,,word,DONOR,,,,,,,,,,,,
html-keyboard-response,387,574818,103.30000001192093,"",32,,word,DONOR,,,,,,,,,,,,
html-keyboard-response,388,575022,null,"<div style=""font-size:42px;"">PORTRAIT</div><img id = ""stim"" ><div class = green_square id = bottomsquare></div>",null,encoding,word_square,,,1,bottomsquare,32,true,,,PORTRAIT,2,,,
html-keyboard-response,389,575326,null,"<div style=""font-size:42px;"">PORTRAIT</div>",null,,word,PORTRAIT,,,,,,,,,,,,
html-keyboard-response,390,576832,287.4000000357628,"",32,,word,PORTRAIT,,,,,,,,,,,,
call-function,391,576835,,"",,,,,,,,,,,,,,,,
html-keyboard-response,392,576938,null,"",null,,,,,,,,,,,,,,,
math-period,393,581460,8356.699999988079,"",,,,,,,,,,,4,,,,,
html-keyboard-response,394,581564,null,"",null,,,,,,,,,,,,,,,
math-period,395,582994,2622.099999964237,"",,,,,,,,,,,3,,,,,
html-keyboard-response,396,583097,null,"",null,,,,,,,,,,,,,,,
math-period,397,584772,3162,"",,,,,,,,,,,4,,,,,
html-keyboard-response,398,584875,null,"",null,,,,,,,,,,,,,,,
math-period,399,587039,4056.599999964237,"",,,,,,,,,,,4,,,,,
html-keyboard-response,400,587141,null,"",null,,,,,,,,,,,,,,,
math-period,401,588580,2276.899999976158,"",,,,,,,,,,,4,,,,,
html-keyboard-response,402,588701,null,"",null,,,,,,,,,,,,,,,
math-period,403,591076,4361.5,"",,,,,,,,,,,1,,,,,
html-keyboard-response,404,591179,null,"",null,,,,,,,,,,,,,,,
math-period,405,592672,2779.399999976158,"",,,,,,,,,,,4,,,,,
html-keyboard-response,406,592776,null,"",null,,,,,,,,,,,,,,,
math-period,407,594726,3688.900000035763,"",,,,,,,,,,,2,,,,,
html-keyboard-response,408,594829,null,"",null,,,,,,,,,,,,,,,
math-period,409,596998,4055.7999999523163,"",,,,,,,,,,,1,,,,,
html-keyboard-response,410,597101,null,"",null,,,,,,,,,,,,,,,
math-period,411,598791,3101.600000023842,"",,,,,,,,,,,4,,,,,
html-keyboard-response,412,598894,null,"",null,,,,,,,,,,,,,,,
math-period,413,600839,1873.1000000238419,"",,,,,,,,,,,2,,,,,
html-keyboard-response,414,601844,null,"Recall Period!",null,,,,,,,,,,,,,,,
call-function,415,601846,,"",,,,,,,,,,,,,,,,
html-keyboard-response,416,601950,null,"",null,,,,,,,,,,,,,,,
recall-period,417,607668,29467.900000095367,"",,,,,,,,,,,heart,,,,,
html-keyboard-response,418,607773,null,"",null,,,,,,,,,,,,,,,
recall-period,419,616808,111383.10000050068,"",,,,,,,,,,,portrait,,,,,
html-keyboard-response,420,616912,null,"",null,,,,,,,,,,,,,,,
recall-period,421,623312,40254.499999821186,"",,,,,,,,,,,snorkel,,,,,
html-keyboard-response,422,623415,null,"",null,,,,,,,,,,,,,,,
recall-period,423,626374,11623.900000154972,"",,,,,,,,,,,lace,,,,,
html-keyboard-response,424,626476,null,"",null,,,,,,,,,,,,,,,
recall-period,425,630395,12938.000000059605,"",,,,,,,,,,,gift,,,,,
html-keyboard-response,426,630497,null,"",null,,,,,,,,,,,,,,,
recall-period,427,631971,5676.900000095367,"",,,,,,,,,,,frame,,,,,
html-keyboard-response,428,632073,null,"",null,,,,,,,,,,,,,,,
recall-period,429,637108,23190.099999904633,"",,,,,,,,,,,raisin,,,,,
html-keyboard-response,430,637211,null,"",null,,,,,,,,,,,,,,,
recall-period,431,639664,10660.499999940395,"",,,,,,,,,,,fossil,,,,,
html-keyboard-response,432,639766,null,"",null,,,,,,,,,,,,,,,
recall-period,433,642484,11880.299999833107,"",,,,,,,,,,,dustpan,,,,,
html-keyboard-response,434,642585,null,"",null,,,,,,,,,,,,,,,
recall-period,435,646360,16708.899999916553,"",,,,,,,,,,,hound,,,,,
html-keyboard-response,436,646463,null,"",null,,,,,,,,,,,,,,,
recall-period,437,649306,9441.899999856949,"",,,,,,,,,,,lava,,,,,
html-keyboard-response,438,649409,null,"",null,,,,,,,,,,,,,,,
recall-period,439,676847,null,"",,,,,,,,,,,,,,,,
html-keyboard-response,440,677351,null,"Time's Up!",null,,,,,,,,,,,,,,,
html-keyboard-response,441,701792,24438.30000001192,"<p> Good job! You have responded correctly to 98% of the trials. </p>
                      <p>Be sure to only press the spacebar if you see a GREEN square, and please keep your accuracy above 80%.</p>
                      <p> Press any key to continue the experiment. </p>",32,,,,,,,,,,,,,,,
html-keyboard-response,442,706425,4631.699999988079,"<div style=""font-size:48px;"">Press any key to begin list 4 of 16 </div>",32,,,,,,,,,,,,,,,
html-keyboard-response,443,708930,null,"<div style=""font-size:60px;"">+</div>",null,,,,,,,,,,,,,,,
html-keyboard-response,444,709134,null,"<div style=""font-size:42px;"">NICKEL</div><img id = ""stim"" ><div class = green_square id = bottomsquare></div>",null,encoding,word_square,,,1,bottomsquare,32,true,,,NICKEL,3,,,
html-keyboard-response,445,709439,null,"<div style=""font-size:42px;"">NICKEL</div>",null,,word,NICKEL,,,,,,,,,,,,
html-keyboard-response,446,710946,323.60000002384186,"",32,,word,NICKEL,,,,,,,,,,,,
html-keyboard-response,447,711149,null,"<div style=""font-size:42px;"">FLEET</div><img id = ""stim"" ><div class = green_square id = topsquare></div>",null,encoding,word_square,,,1,topsquare,32,true,,,FLEET,3,,,
html-keyboard-response,448,711453,null,"<div style=""font-size:42px;"">FLEET</div>",null,,word,FLEET,,,,,,,,,,,,
html-keyboard-response,449,712956,389.60000002384186,"",32,,word,FLEET,,,,,,,,,,,,
html-keyboard-response,450,713161,null,"<div style=""font-size:42px;"">CASTLE</div><img id = ""stim"" ><div class = red_square id = topsquare></div>",null,encoding,word_square,,,0,topsquare,none,true,,,CASTLE,3,,,
html-keyboard-response,451,713464,null,"<div style=""font-size:42px;"">CASTLE</div>",null,,word,CASTLE,,,,,,,,,,,,
html-keyboard-response,452,714967,null,"",null,,word,CASTLE,,,,,,,,,,,,
html-keyboard-response,453,715173,null,"<div style=""font-size:42px;"">GAZELLE</div><img id = ""stim"" ><div class = green_square id = bottomsquare></div>",null,encoding,word_square,,,1,bottomsquare,32,true,,,GAZELLE,3,,,
html-keyboard-response,454,715476,null,"<div style=""font-size:42px;"">GAZELLE</div>",null,,word,GAZELLE,,,,,,,,,,,,
html-keyboard-response,455,716980,473.9000000357628,"",32,,word,GAZELLE,,,,,,,,,,,,
html-keyboard-response,456,717183,null,"<div style=""font-size:42px;"">HONEY</div><img id = ""stim"" ><div class = red_square id = bottomsquare></div>",null,encoding,word_square,,,0,bottomsquare,none,true,,,HONEY,3,,,
html-keyboard-response,457,717486,null,"<div style=""font-size:42px;"">HONEY</div>",null,,word,HONEY,,,,,,,,,,,,
html-keyboard-response,458,718990,null,"",null,,word,HONEY,,,,,,,,,,,,
html-keyboard-response,459,719194,null,"<div style=""font-size:42px;"">WAX</div><img id = ""stim"" ><div class = green_square id = topsquare></div>",null,encoding,word_square,,,1,topsquare,32,true,,,WAX,3,,,
html-keyboard-response,460,719502,null,"<div style=""font-size:42px;"">WAX</div>",null,,word,WAX,,,,,,,,,,,,
html-keyboard-response,461,721007,188.70000004768372,"",32,,word,WAX,,,,,,,,,,,,
html-keyboard-response,462,721212,null,"<div style=""font-size:42px;"">DAUGHTER</div><img id = ""stim"" ><div class = red_square id = topsquare></div>",null,encoding,word_square,,,0,topsquare,none,true,,,DAUGHTER,3,,,
html-keyboard-response,463,721515,null,"<div style=""font-size:42px;"">DAUGHTER</div>",null,,word,DAUGHTER,,,,,,,,,,,,
html-keyboard-response,464,723020,null,"",null,,word,DAUGHTER,,,,,,,,,,,,
html-keyboard-response,465,723224,null,"<div style=""font-size:42px;"">CREATURE</div><img id = ""stim"" ><div class = green_square id = bottomsquare></div>",null,encoding,word_square,,,1,bottomsquare,32,true,,,CREATURE,3,,,
html-keyboard-response,466,723528,null,"<div style=""font-size:42px;"">CREATURE</div>",null,,word,CREATURE,,,,,,,,,,,,
html-keyboard-response,467,725031,92.40000003576279,"",32,,word,CREATURE,,,,,,,,,,,,
html-keyboard-response,468,725236,null,"<div style=""font-size:42px;"">ELK</div><img id = ""stim"" ><div class = green_square id = topsquare></div>",null,encoding,word_square,,,1,topsquare,32,true,,,ELK,3,,,
html-keyboard-response,469,725549,null,"<div style=""font-size:42px;"">ELK</div>",null,,word,ELK,,,,,,,,,,,,
html-keyboard-response,470,727053,788,"",32,,word,ELK,,,,,,,,,,,,
html-keyboard-response,471,727258,null,"<div style=""font-size:42px;"">SLACKS</div><img id = ""stim"" ><div class = red_square id = bottomsquare></div>",null,encoding,word_square,,,0,bottomsquare,none,true,,,SLACKS,3,,,
html-keyboard-response,472,727561,null,"<div style=""font-size:42px;"">SLACKS</div>",null,,word,SLACKS,,,,,,,,,,,,
html-keyboard-response,473,729065,null,"",null,,word,SLACKS,,,,,,,,,,,,
html-keyboard-response,474,729269,null,"<div style=""font-size:42px;"">WORKER</div><img id = ""stim"" ><div class = red_square id = topsquare></div>",null,encoding,word_square,,,0,topsquare,none,true,,,WORKER,3,,,
html-keyboard-response,475,729573,null,"<div style=""font-size:42px;"">WORKER</div>",null,,word,WORKER,,,,,,,,,,,,
html-keyboard-response,476,731077,null,"",null,,word,WORKER,,,,,,,,,,,,
html-keyboard-response,477,731281,null,"<div style=""font-size:42px;"">BRIDE</div><img id = ""stim"" ><div class = green_square id = bottomsquare></div>",null,encoding,word_square,,,1,bottomsquare,32,true,,,BRIDE,3,,,
html-keyboard-response,478,731584,null,"<div style=""font-size:42px;"">BRIDE</div>",null,,word,BRIDE,,,,,,,,,,,,
html-keyboard-response,479,733087,237.30000001192093,"",32,,word,BRIDE,,,,,,,,,,,,
html-keyboard-response,480,733296,null,"<div style=""font-size:42px;"">BANK</div><img id = ""stim"" ><div class = green_square id = topsquare></div>",null,encoding,word_square,,,1,topsquare,32,true,,,BANK,3,,,
html-keyboard-response,481,733599,null,"<div style=""font-size:42px;"">BANK</div>",null,,word,BANK,,,,,,,,,,,,
html-keyboard-response,482,735102,197.19999998807907,"",32,,word,BANK,,,,,,,,,,,,
html-keyboard-response,483,735306,null,"<div style=""font-size:42px;"">ATLAS</div><img id = ""stim"" ><div class = red_square id = bottomsquare></div>",null,encoding,word_square,,,0,bottomsquare,none,true,,,ATLAS,3,,,
html-keyboard-response,484,735609,null,"<div style=""font-size:42px;"">ATLAS</div>",null,,word,ATLAS,,,,,,,,,,,,
html-keyboard-response,485,737113,null,"",null,,word,ATLAS,,,,,,,,,,,,
html-keyboard-response,486,737317,null,"<div style=""font-size:42px;"">WORLD</div><img id = ""stim"" ><div class = red_square id = topsquare></div>",null,encoding,word_square,,,0,topsquare,none,true,,,WORLD,3,,,
html-keyboard-response,487,737620,null,"<div style=""font-size:42px;"">WORLD</div>",null,,word,WORLD,,,,,,,,,,,,
html-keyboard-response,488,739123,null,"",null,,word,WORLD,,,,,,,,,,,,
html-keyboard-response,489,739329,null,"<div style=""font-size:42px;"">LAPEL</div><img id = ""stim"" ><div class = red_square id = bottomsquare></div>",null,encoding,word_square,,,0,bottomsquare,none,true,,,LAPEL,3,,,
html-keyboard-response,490,739632,null,"<div style=""font-size:42px;"">LAPEL</div>",null,,word,LAPEL,,,,,,,,,,,,
html-keyboard-response,491,741136,null,"",null,,word,LAPEL,,,,,,,,,,,,
call-function,492,741138,,"",,,,,,,,,,,,,,,,
html-keyboard-response,493,741241,null,"",null,,,,,,,,,,,,,,,
math-period,494,743629,4504.199999928474,"",,,,,,,,,,,1,,,,,
html-keyboard-response,495,743732,null,"",null,,,,,,,,,,,,,,,
math-period,496,745359,3094.1999999284744,"",,,,,,,,,,,3,,,,,
html-keyboard-response,497,745462,null,"",null,,,,,,,,,,,,,,,
math-period,498,747509,3848.399999976158,"",,,,,,,,,,,4,,,,,
html-keyboard-response,499,747611,null,"",null,,,,,,,,,,,,,,,
math-period,500,749372,3328.399999976158,"",,,,,,,,,,,5,,,,,
html-keyboard-response,501,749474,null,"",null,,,,,,,,,,,,,,,
math-period,502,751265,3390.900000035763,"",,,,,,,,,,,5,,,,,
html-keyboard-response,503,751369,null,"",null,,,,,,,,,,,,,,,
math-period,504,753946,4938,"",,,,,,,,,,,1,,,,,
html-keyboard-response,505,754049,null,"",null,,,,,,,,,,,,,,,
math-period,506,756476,4524.400000035763,"",,,,,,,,,,,4,,,,,
html-keyboard-response,507,756579,null,"",null,,,,,,,,,,,,,,,
math-period,508,763439,13489,"",,,,,,,,,,,3,,,,,
html-keyboard-response,509,763542,null,"",null,,,,,,,,,,,,,,,
math-period,510,764874,2472,"",,,,,,,,,,,2,,,,,
html-keyboard-response,511,764976,null,"",null,,,,,,,,,,,,,,,
math-period,512,765141,null,"",,,,,,,,,,,,,,,,
html-keyboard-response,513,766145,null,"Recall Period!",null,,,,,,,,,,,,,,,
call-function,514,766147,,"",,,,,,,,,,,,,,,,
html-keyboard-response,515,766251,null,"",null,,,,,,,,,,,,,,,
recall-period,516,769127,13742.499999940395,"",,,,,,,,,,,lapel,,,,,
html-keyboard-response,517,769230,null,"",null,,,,,,,,,,,,,,,
recall-period,518,772092,11335,"",,,,,,,,,,,bank,,,,,
html-keyboard-response,519,772195,null,"",null,,,,,,,,,,,,,,,
recall-period,520,775770,20153.100000083447,"",,,,,,,,,,,worker,,,,,
html-keyboard-response,521,775872,null,"",null,,,,,,,,,,,,,,,
recall-period,522,780106,26359.199999809265,"",,,,,,,,,,,creature,,,,,
html-keyboard-response,523,780208,null,"",null,,,,,,,,,,,,,,,
recall-period,524,782728,11708.999999821186,"",,,,,,,,,,,honey,,,,,
html-keyboard-response,525,782829,null,"",null,,,,,,,,,,,,,,,
recall-period,526,787830,20167.000000178814,"",,,,,,,,,,,fleet,,,,,
html-keyboard-response,527,787933,null,"",null,,,,,,,,,,,,,,,
recall-period,528,790209,9751.599999845028,"",,,,,,,,,,,nickel,,,,,
html-keyboard-response,529,790312,null,"",null,,,,,,,,,,,,,,,
recall-period,530,793676,12848.099999845028,"",,,,,,,,,,,castle,,,,,
html-keyboard-response,531,793777,null,"",null,,,,,,,,,,,,,,,
recall-period,532,795484,4548.299999892712,"",,,,,,,,,,,wax,,,,,
html-keyboard-response,533,795587,null,"",null,,,,,,,,,,,,,,,
recall-period,534,798507,8046.299999952316,"",,,,,,,,,,,elk,,,,,
html-keyboard-response,535,798610,null,"",null,,,,,,,,,,,,,,,
recall-period,536,800638,8481.600000023842,"",,,,,,,,,,,bride,,,,,
html-keyboard-response,537,800740,null,"",null,,,,,,,,,,,,,,,
recall-period,538,804485,18174.69999986887,"",,,,,,,,,,,world,,,,,
html-keyboard-response,539,804587,null,"",null,,,,,,,,,,,,,,,
recall-period,540,841150,null,"",,,,,,,,,,,,,,,,
html-keyboard-response,541,841653,null,"Time's Up!",null,,,,,,,,,,,,,,,
html-keyboard-response,542,859104,17447.599999964237,"<p> Good job! You have responded correctly to 98% of the trials. </p>
                      <p>Be sure to only press the spacebar if you see a GREEN square, and please keep your accuracy above 80%.</p>
                      <p> Press any key to continue the experiment. </p>",32,,,,,,,,,,,,,,,
html-keyboard-response,543,860472,1364.6000000238419,"<div style=""font-size:48px;"">Press any key to begin list 5 of 16 </div>",32,,,,,,,,,,,,,,,
html-keyboard-response,544,862979,null,"<div style=""font-size:60px;"">+</div>",null,,,,,,,,,,,,,,,
html-keyboard-response,545,863184,null,"<div style=""font-size:42px;"">BALLOON</div><img id = ""stim"" ><div class = green_square id = topsquare></div>",null,encoding,word_square,,,1,topsquare,32,true,,,BALLOON,4,,,
html-keyboard-response,546,863494,null,"<div style=""font-size:42px;"">BALLOON</div>",null,,word,BALLOON,,,,,,,,,,,,
html-keyboard-response,547,864997,469.7000000476837,"",32,,word,BALLOON,,,,,,,,,,,,
html-keyboard-response,548,865203,null,"<div style=""font-size:42px;"">MARKET</div><img id = ""stim"" ><div class = red_square id = bottomsquare></div>",null,encoding,word_square,,,0,bottomsquare,none,true,,,MARKET,4,,,
html-keyboard-response,549,865507,null,"<div style=""font-size:42px;"">MARKET</div>",null,,word,MARKET,,,,,,,,,,,,
html-keyboard-response,550,867013,null,"",null,,word,MARKET,,,,,,,,,,,,
html-keyboard-response,551,867226,null,"<div style=""font-size:42px;"">SCALPEL</div><img id = ""stim"" ><div class = green_square id = bottomsquare></div>",null,encoding,word_square,,,1,bottomsquare,32,true,,,SCALPEL,4,,,
html-keyboard-response,552,867529,null,"<div style=""font-size:42px;"">SCALPEL</div>",null,,word,SCALPEL,,,,,,,,,,,,
html-keyboard-response,553,869032,120.39999997615814,"",32,,word,SCALPEL,,,,,,,,,,,,
html-keyboard-response,554,869235,null,"<div style=""font-size:42px;"">GLASSES</div><img id = ""stim"" ><div class = red_square id = topsquare></div>",null,encoding,word_square,,,0,topsquare,none,true,,,GLASSES,4,,,
html-keyboard-response,555,869539,null,"<div style=""font-size:42px;"">GLASSES</div>",null,,word,GLASSES,,,,,,,,,,,,
html-keyboard-response,556,871041,null,"",null,,word,GLASSES,,,,,,,,,,,,
html-keyboard-response,557,871244,null,"<div style=""font-size:42px;"">COBRA</div><img id = ""stim"" ><div class = green_square id = topsquare></div>",null,encoding,word_square,,,1,topsquare,32,true,,,COBRA,4,,,
html-keyboard-response,558,871550,null,"<div style=""font-size:42px;"">COBRA</div>",null,,word,COBRA,,,,,,,,,,,,
html-keyboard-response,559,873052,1.199999988079071,"",32,,word,COBRA,,,,,,,,,,,,
html-keyboard-response,560,873255,null,"<div style=""font-size:42px;"">SALT</div><img id = ""stim"" ><div class = red_square id = bottomsquare></div>",null,encoding,word_square,,,0,bottomsquare,none,true,,,SALT,4,,,
html-keyboard-response,561,873559,null,"<div style=""font-size:42px;"">SALT</div>",null,,word,SALT,,,,,,,,,,,,
html-keyboard-response,562,875062,null,"",null,,word,SALT,,,,,,,,,,,,
html-keyboard-response,563,875267,null,"<div style=""font-size:42px;"">PARSLEY</div><img id = ""stim"" ><div class = red_square id = topsquare></div>",null,encoding,word_square,,,0,topsquare,none,true,,,PARSLEY,4,,,
html-keyboard-response,564,875569,null,"<div style=""font-size:42px;"">PARSLEY</div>",null,,word,PARSLEY,,,,,,,,,,,,
html-keyboard-response,565,877072,null,"",null,,word,PARSLEY,,,,,,,,,,,,
html-keyboard-response,566,877275,null,"<div style=""font-size:42px;"">OZONE</div><img id = ""stim"" ><div class = green_square id = bottomsquare></div>",null,encoding,word_square,,,1,bottomsquare,32,true,,,OZONE,4,,,
html-keyboard-response,567,877581,null,"<div style=""font-size:42px;"">OZONE</div>",null,,word,OZONE,,,,,,,,,,,,
html-keyboard-response,568,879083,45.30000001192093,"",32,,word,OZONE,,,,,,,,,,,,
html-keyboard-response,569,879287,null,"<div style=""font-size:42px;"">SIRLOIN</div><img id = ""stim"" ><div class = green_square id = topsquare></div>",null,encoding,word_square,,,1,topsquare,32,false,,,SIRLOIN,4,,,
html-keyboard-response,570,879589,null,"<div style=""font-size:42px;"">SIRLOIN</div>",null,,word,SIRLOIN,,,,,,,,,,,,
html-keyboard-response,571,881093,null,"",null,,word,SIRLOIN,,,,,,,,,,,,
html-keyboard-response,572,881297,null,"<div style=""font-size:42px;"">PIANO</div><img id = ""stim"" ><div class = red_square id = bottomsquare></div>",null,encoding,word_square,,,0,bottomsquare,none,true,,,PIANO,4,,,
html-keyboard-response,573,881600,null,"<div style=""font-size:42px;"">PIANO</div>",null,,word,PIANO,,,,,,,,,,,,
html-keyboard-response,574,883103,null,"",null,,word,PIANO,,,,,,,,,,,,
html-keyboard-response,575,883306,null,"<div style=""font-size:42px;"">KIDNEY</div><img id = ""stim"" ><div class = red_square id = topsquare></div>",null,encoding,word_square,,,0,topsquare,none,false,,,KIDNEY,4,,,
html-keyboard-response,576,883610,null,"<div style=""font-size:42px;"">KIDNEY</div>",null,,word,KIDNEY,,,,,,,,,,,,
html-keyboard-response,577,885113,284.69999998807907,"",32,,word,KIDNEY,,,,,,,,,,,,
html-keyboard-response,578,885319,null,"<div style=""font-size:42px;"">ADULT</div><img id = ""stim"" ><div class = green_square id = bottomsquare></div>",null,encoding,word_square,,,1,bottomsquare,32,false,,,ADULT,4,,,
html-keyboard-response,579,885623,null,"<div style=""font-size:42px;"">ADULT</div>",null,,word,ADULT,,,,,,,,,,,,
html-keyboard-response,580,887126,null,"",null,,word,ADULT,,,,,,,,,,,,
html-keyboard-response,581,887330,null,"<div style=""font-size:42px;"">BUTLER</div><img id = ""stim"" ><div class = green_square id = topsquare></div>",null,encoding,word_square,,,1,topsquare,32,true,,,BUTLER,4,,,
html-keyboard-response,582,887634,null,"<div style=""font-size:42px;"">BUTLER</div>",null,,word,BUTLER,,,,,,,,,,,,
html-keyboard-response,583,889137,1327.7999999523163,"",32,,word,BUTLER,,,,,,,,,,,,
html-keyboard-response,584,889340,null,"<div style=""font-size:42px;"">CANYON</div><img id = ""stim"" ><div class = red_square id = bottomsquare></div>",null,encoding,word_square,,,0,bottomsquare,none,true,,,CANYON,4,,,
html-keyboard-response,585,889643,null,"<div style=""font-size:42px;"">CANYON</div>",null,,word,CANYON,,,,,,,,,,,,
html-keyboard-response,586,891147,null,"",null,,word,CANYON,,,,,,,,,,,,
html-keyboard-response,587,891350,null,"<div style=""font-size:42px;"">CIGAR</div><img id = ""stim"" ><div class = red_square id = topsquare></div>",null,encoding,word_square,,,0,topsquare,none,true,,,CIGAR,4,,,
html-keyboard-response,588,891653,null,"<div style=""font-size:42px;"">CIGAR</div>",null,,word,CIGAR,,,,,,,,,,,,
html-keyboard-response,589,893156,null,"",null,,word,CIGAR,,,,,,,,,,,,
html-keyboard-response,590,893360,null,"<div style=""font-size:42px;"">SPICE</div><img id = ""stim"" ><div class = green_square id = bottomsquare></div>",null,encoding,word_square,,,1,bottomsquare,32,true,,,SPICE,4,,,
html-keyboard-response,591,893664,null,"<div style=""font-size:42px;"">SPICE</div>",null,,word,SPICE,,,,,,,,,,,,
html-keyboard-response,592,895167,201.39999997615814,"",32,,word,SPICE,,,,,,,,,,,,
call-function,593,895170,,"",,,,,,,,,,,,,,,,
html-keyboard-response,594,895272,null,"",null,,,,,,,,,,,,,,,
math-period,595,897695,4697.100000023842,"",,,,,,,,,,,2,,,,,
html-keyboard-response,596,897797,null,"",null,,,,,,,,,,,,,,,
math-period,597,899511,3233.2000000476837,"",,,,,,,,,,,4,,,,,
html-keyboard-response,598,899615,null,"",null,,,,,,,,,,,,,,,
math-period,599,901582,3726.099999964237,"",,,,,,,,,,,1,,,,,
html-keyboard-response,600,901683,null,"",null,,,,,,,,,,,,,,,
math-period,601,903827,4057,"",,,,,,,,,,,2,,,,,
html-keyboard-response,602,903930,null,"",null,,,,,,,,,,,,,,,
math-period,603,905514,2960.399999976158,"",,,,,,,,,,,6,,,,,
html-keyboard-response,604,905615,null,"",null,,,,,,,,,,,,,,,
math-period,605,907083,2770.5,"",,,,,,,,,,,3,,,,,
html-keyboard-response,606,907185,null,"",null,,,,,,,,,,,,,,,
math-period,607,907382,194.80000001192093,"",,,,,,,,,,,,,,,,
html-keyboard-response,608,907484,null,"",null,,,,,,,,,,,,,,,
math-period,609,910204,5207,"",,,,,,,,,,,3,,,,,
html-keyboard-response,610,910308,null,"",null,,,,,,,,,,,,,,,
math-period,611,911836,2785.5,"",,,,,,,,,,,3,,,,,
html-keyboard-response,612,911939,null,"",null,,,,,,,,,,,,,,,
math-period,613,913479,2831.300000011921,"",,,,,,,,,,,5,,,,,
html-keyboard-response,614,913581,null,"",null,,,,,,,,,,,,,,,
math-period,615,915591,3838.7999999523163,"",,,,,,,,,,,4,,,,,
html-keyboard-response,616,915695,null,"",null,,,,,,,,,,,,,,,
math-period,617,917325,2959.900000035763,"",,,,,,,,,,,3,,,,,
html-keyboard-response,618,917430,null,"",null,,,,,,,,,,,,,,,
math-period,619,918609,2000.4000000357628,"",,,,,,,,,,,3,,,,,
html-keyboard-response,620,918712,null,"",null,,,,,,,,,,,,,,,
math-period,621,919172,null,"",,,,,,,,,,,,,,,,
html-keyboard-response,622,920175,null,"Recall Period!",null,,,,,,,,,,,,,,,
call-function,623,920177,,"",,,,,,,,,,,,,,,,
html-keyboard-response,624,920281,null,"",null,,,,,,,,,,,,,,,
recall-period,625,923513,15088.100000143051,"",,,,,,,,,,,spice,,,,,
html-keyboard-response,626,923616,null,"",null,,,,,,,,,,,,,,,
recall-period,627,926691,16949.999999940395,"",,,,,,,,,,,butler,,,,,
html-keyboard-response,628,926795,null,"",null,,,,,,,,,,,,,,,
recall-period,629,929674,17010.19999998808,"",,,,,,,,,,,sirloin,,,,,
html-keyboard-response,630,929776,null,"",null,,,,,,,,,,,,,,,
recall-period,631,932587,10819.399999916553,"",,,,,,,,,,,salt,,,,,
html-keyboard-response,632,932689,null,"",null,,,,,,,,,,,,,,,
recall-period,633,935720,17112.100000083447,"",,,,,,,,,,,glasses,,,,,
html-keyboard-response,634,935823,null,"",null,,,,,,,,,,,,,,,
recall-period,635,938772,16402.299999952316,"",,,,,,,,,,,balloon,,,,,
html-keyboard-response,636,938875,null,"",null,,,,,,,,,,,,,,,
recall-period,637,941639,12118.500000059605,"",,,,,,,,,,,market,,,,,
html-keyboard-response,638,941743,null,"",null,,,,,,,,,,,,,,,
recall-period,639,944855,13979.899999856949,"",,,,,,,,,,,cobra,,,,,
html-keyboard-response,640,944957,null,"",null,,,,,,,,,,,,,,,
recall-period,641,948714,18206.69999998808,"",,,,,,,,,,,ozone,,,,,
html-keyboard-response,642,948817,null,"",null,,,,,,,,,,,,,,,
recall-period,643,952198,15486.899999856949,"",,,,,,,,,,,adult,,,,,
html-keyboard-response,644,952301,null,"",null,,,,,,,,,,,,,,,
recall-period,645,954853,11806.799999892712,"",,,,,,,,,,,cigar,,,,,
html-keyboard-response,646,954956,null,"",null,,,,,,,,,,,,,,,
recall-period,647,995178,null,"",,,,,,,,,,,,,,,,
html-keyboard-response,648,995682,null,"Time's Up!",null,,,,,,,,,,,,,,,
html-keyboard-response,649,1000321,4636.5,"<p> Good job! You have responded correctly to 95% of the trials. </p>
                      <p>Be sure to only press the spacebar if you see a GREEN square, and please keep your accuracy above 80%.</p>
                      <p> Press any key to continue the experiment. </p>",32,,,,,,,,,,,,,,,
html-keyboard-response,650,1001588,1265.4000000357628,"<div style=""font-size:48px;"">Press any key to begin list 6 of 16 </div>",32,,,,,,,,,,,,,,,
html-keyboard-response,651,1004091,null,"<div style=""font-size:60px;"">+</div>",null,,,,,,,,,,,,,,,
html-keyboard-response,652,1004295,null,"<div style=""font-size:42px;"">BEAKER</div><img id = ""stim"" ><div class = green_square id = bottomsquare></div>",null,encoding,word_square,,,1,bottomsquare,32,true,,,BEAKER,5,,,
html-keyboard-response,653,1004598,null,"<div style=""font-size:42px;"">BEAKER</div>",null,,word,BEAKER,,,,,,,,,,,,
html-keyboard-response,654,1006101,691.1999999880791,"",32,,word,BEAKER,,,,,,,,,,,,
html-keyboard-response,655,1006305,null,"<div style=""font-size:42px;"">BOUQUET</div><img id = ""stim"" ><div class = red_square id = topsquare></div>",null,encoding,word_square,,,0,topsquare,none,true,,,BOUQUET,5,,,
html-keyboard-response,656,1006608,null,"<div style=""font-size:42px;"">BOUQUET</div>",null,,word,BOUQUET,,,,,,,,,,,,
html-keyboard-response,657,1008111,null,"",null,,word,BOUQUET,,,,,,,,,,,,
html-keyboard-response,658,1008314,null,"<div style=""font-size:42px;"">TWIG</div><img id = ""stim"" ><div class = red_square id = bottomsquare></div>",null,encoding,word_square,,,0,bottomsquare,none,true,,,TWIG,5,,,
html-keyboard-response,659,1008617,null,"<div style=""font-size:42px;"">TWIG</div>",null,,word,TWIG,,,,,,,,,,,,
html-keyboard-response,660,1010120,null,"",null,,word,TWIG,,,,,,,,,,,,
html-keyboard-response,661,1010324,null,"<div style=""font-size:42px;"">SHRUB</div><img id = ""stim"" ><div class = green_square id = topsquare></div>",null,encoding,word_square,,,1,topsquare,32,true,,,SHRUB,5,,,
html-keyboard-response,662,1010627,null,"<div style=""font-size:42px;"">SHRUB</div>",null,,word,SHRUB,,,,,,,,,,,,
html-keyboard-response,663,1012131,651,"",32,,word,SHRUB,,,,,,,,,,,,
html-keyboard-response,664,1012334,null,"<div style=""font-size:42px;"">BASKET</div><img id = ""stim"" ><div class = green_square id = bottomsquare></div>",null,encoding,word_square,,,1,bottomsquare,32,true,,,BASKET,5,,,
html-keyboard-response,665,1012638,null,"<div style=""font-size:42px;"">BASKET</div>",null,,word,BASKET,,,,,,,,,,,,
html-keyboard-response,666,1014141,796.8000000119209,"",32,,word,BASKET,,,,,,,,,,,,
html-keyboard-response,667,1014344,null,"<div style=""font-size:42px;"">FEMALE</div><img id = ""stim"" ><div class = red_square id = topsquare></div>",null,encoding,word_square,,,0,topsquare,none,true,,,FEMALE,5,,,
html-keyboard-response,668,1014646,null,"<div style=""font-size:42px;"">FEMALE</div>",null,,word,FEMALE,,,,,,,,,,,,
html-keyboard-response,669,1016151,null,"",null,,word,FEMALE,,,,,,,,,,,,
html-keyboard-response,670,1016356,null,"<div style=""font-size:42px;"">CABOOSE</div><img id = ""stim"" ><div class = red_square id = bottomsquare></div>",null,encoding,word_square,,,0,bottomsquare,none,true,,,CABOOSE,5,,,
html-keyboard-response,671,1016659,null,"<div style=""font-size:42px;"">CABOOSE</div>",null,,word,CABOOSE,,,,,,,,,,,,
html-keyboard-response,672,1018162,null,"",null,,word,CABOOSE,,,,,,,,,,,,
html-keyboard-response,673,1018366,null,"<div style=""font-size:42px;"">NEUTRON</div><img id = ""stim"" ><div class = green_square id = topsquare></div>",null,encoding,word_square,,,1,topsquare,32,true,,,NEUTRON,5,,,
html-keyboard-response,674,1018668,null,"<div style=""font-size:42px;"">NEUTRON</div>",null,,word,NEUTRON,,,,,,,,,,,,
html-keyboard-response,675,1020171,211.19999998807907,"",32,,word,NEUTRON,,,,,,,,,,,,
html-keyboard-response,676,1020375,null,"<div style=""font-size:42px;"">FIREMAN</div><img id = ""stim"" ><div class = green_square id = bottomsquare></div>",null,encoding,word_square,,,1,bottomsquare,32,true,,,FIREMAN,5,,,
html-keyboard-response,677,1020678,null,"<div style=""font-size:42px;"">FIREMAN</div>",null,,word,FIREMAN,,,,,,,,,,,,
html-keyboard-response,678,1022182,315.5999999642372,"",32,,word,FIREMAN,,,,,,,,,,,,
html-keyboard-response,679,1022387,null,"<div style=""font-size:42px;"">HAMMOCK</div><img id = ""stim"" ><div class = red_square id = topsquare></div>",null,encoding,word_square,,,0,topsquare,none,true,,,HAMMOCK,5,,,
html-keyboard-response,680,1022691,null,"<div style=""font-size:42px;"">HAMMOCK</div>",null,,word,HAMMOCK,,,,,,,,,,,,
html-keyboard-response,681,1024194,null,"",null,,word,HAMMOCK,,,,,,,,,,,,
html-keyboard-response,682,1024399,null,"<div style=""font-size:42px;"">CRAB</div><img id = ""stim"" ><div class = red_square id = bottomsquare></div>",null,encoding,word_square,,,0,bottomsquare,none,true,,,CRAB,5,,,
html-keyboard-response,683,1024705,null,"<div style=""font-size:42px;"">CRAB</div>",null,,word,CRAB,,,,,,,,,,,,
html-keyboard-response,684,1026208,null,"",null,,word,CRAB,,,,,,,,,,,,
html-keyboard-response,685,1026412,null,"<div style=""font-size:42px;"">CORAL</div><img id = ""stim"" ><div class = green_square id = topsquare></div>",null,encoding,word_square,,,1,topsquare,32,true,,,CORAL,5,,,
html-keyboard-response,686,1026715,null,"<div style=""font-size:42px;"">CORAL</div>",null,,word,CORAL,,,,,,,,,,,,
html-keyboard-response,687,1028220,137.39999997615814,"",32,,word,CORAL,,,,,,,,,,,,
html-keyboard-response,688,1028424,null,"<div style=""font-size:42px;"">LIPSTICK</div><img id = ""stim"" ><div class = red_square id = topsquare></div>",null,encoding,word_square,,,0,topsquare,none,true,,,LIPSTICK,5,,,
html-keyboard-response,689,1028728,null,"<div style=""font-size:42px;"">LIPSTICK</div>",null,,word,LIPSTICK,,,,,,,,,,,,
html-keyboard-response,690,1030232,null,"",null,,word,LIPSTICK,,,,,,,,,,,,
html-keyboard-response,691,1030437,null,"<div style=""font-size:42px;"">RADISH</div><img id = ""stim"" ><div class = green_square id = bottomsquare></div>",null,encoding,word_square,,,1,bottomsquare,32,true,,,RADISH,5,,,
html-keyboard-response,692,1030739,225.80000001192093,"<div style=""font-size:42px;"">RADISH</div>",32,,word,RADISH,,,,,,,,,,,,
html-keyboard-response,693,1032243,null,"",null,,word,RADISH,,,,,,,,,,,,
html-keyboard-response,694,1032447,null,"<div style=""font-size:42px;"">CIRCUS</div><img id = ""stim"" ><div class = red_square id = bottomsquare></div>",null,encoding,word_square,,,0,bottomsquare,none,true,,,CIRCUS,5,,,
html-keyboard-response,695,1032750,null,"<div style=""font-size:42px;"">CIRCUS</div>",null,,word,CIRCUS,,,,,,,,,,,,
html-keyboard-response,696,1034254,null,"",null,,word,CIRCUS,,,,,,,,,,,,
html-keyboard-response,697,1034458,null,"<div style=""font-size:42px;"">OATMEAL</div><img id = ""stim"" ><div class = green_square id = topsquare></div>",null,encoding,word_square,,,1,topsquare,32,true,,,OATMEAL,5,,,
html-keyboard-response,698,1034761,294.5999999642372,"<div style=""font-size:42px;"">OATMEAL</div>",32,,word,OATMEAL,,,,,,,,,,,,
html-keyboard-response,699,1036265,null,"",null,,word,OATMEAL,,,,,,,,,,,,
call-function,700,1036268,,"",,,,,,,,,,,,,,,,
html-keyboard-response,701,1036370,null,"",null,,,,,,,,,,,,,,,
math-period,702,1041153,9373.199999928474,"",,,,,,,,,,,4,,,,,
html-keyboard-response,703,1041256,null,"",null,,,,,,,,,,,,,,,
math-period,704,1045893,9128.899999976158,"",,,,,,,,,,,3,,,,,
html-keyboard-response,705,1045997,null,"",null,,,,,,,,,,,,,,,
math-period,706,1047598,2963.3000000715256,"",,,,,,,,,,,4,,,,,
html-keyboard-response,707,1047700,null,"",null,,,,,,,,,,,,,,,
math-period,708,1050041,4462.300000011921,"",,,,,,,,,,,1,,,,,
html-keyboard-response,709,1050143,null,"",null,,,,,,,,,,,,,,,
math-period,710,1051615,2709.199999988079,"",,,,,,,,,,,5,,,,,
html-keyboard-response,711,1051719,null,"",null,,,,,,,,,,,,,,,
math-period,712,1053197,2711.9999999403954,"",,,,,,,,,,,5,,,,,
html-keyboard-response,713,1053300,null,"",null,,,,,,,,,,,,,,,
math-period,714,1055003,3100.699999988079,"",,,,,,,,,,,4,,,,,
html-keyboard-response,715,1055106,null,"",null,,,,,,,,,,,,,,,
math-period,716,1057200,3933.5000000596046,"",,,,,,,,,,,2,,,,,
html-keyboard-response,717,1057304,null,"",null,,,,,,,,,,,,,,,
math-period,718,1059327,3744.400000035763,"",,,,,,,,,,,2,,,,,
html-keyboard-response,719,1059431,null,"",null,,,,,,,,,,,,,,,
math-period,720,1060272,null,"",,,,,,,,,,,,,,,,
html-keyboard-response,721,1061277,null,"Recall Period!",null,,,,,,,,,,,,,,,
call-function,722,1061279,,"",,,,,,,,,,,,,,,,
html-keyboard-response,723,1061381,null,"",null,,,,,,,,,,,,,,,
recall-period,724,1066095,41645.10000002384,"",,,,,,,,,,,oatmeal,,,,,
html-keyboard-response,725,1066198,null,"",null,,,,,,,,,,,,,,,
recall-period,726,1069169,17759.899999797344,"",,,,,,,,,,,lipstick,,,,,
html-keyboard-response,727,1069273,null,"",null,,,,,,,,,,,,,,,
recall-period,728,1072013,10776.300000011921,"",,,,,,,,,,,crab,,,,,
html-keyboard-response,729,1072116,null,"",null,,,,,,,,,,,,,,,
recall-period,730,1076561,25617.899999797344,"",,,,,,,,,,,neutron,,,,,
html-keyboard-response,731,1076664,null,"",null,,,,,,,,,,,,,,,
recall-period,732,1079557,14488.5,"",,,,,,,,,,,basket,,,,,
html-keyboard-response,733,1079661,null,"",null,,,,,,,,,,,,,,,
recall-period,734,1083749,23841.49999988079,"",,,,,,,,,,,bouquet,,,,,
html-keyboard-response,735,1083852,null,"",null,,,,,,,,,,,,,,,
recall-period,736,1088101,24484.30000025034,"",,,,,,,,,,,beaker,,,,,
html-keyboard-response,737,1088204,null,"",null,,,,,,,,,,,,,,,
recall-period,738,1090015,6459.399999976158,"",,,,,,,,,,,shrub,,,,,
html-keyboard-response,739,1090117,null,"",null,,,,,,,,,,,,,,,
recall-period,740,1092584,12573.100000143051,"",,,,,,,,,,,female,,,,,
html-keyboard-response,741,1092687,null,"",null,,,,,,,,,,,,,,,
recall-period,742,1095780,17870.89999985695,"",,,,,,,,,,,fireman,,,,,
html-keyboard-response,743,1095882,null,"",null,,,,,,,,,,,,,,,
recall-period,744,1098742,11585.099999785423,"",,,,,,,,,,,coral,,,,,
html-keyboard-response,745,1098846,null,"",null,,,,,,,,,,,,,,,
recall-period,746,1101597,13670.499999821186,"",,,,,,,,,,,circus,,,,,
html-keyboard-response,747,1101699,null,"",null,,,,,,,,,,,,,,,
recall-period,748,1136282,null,"",,,,,,,,,,,,,,,,
html-keyboard-response,749,1136787,null,"Time's Up!",null,,,,,,,,,,,,,,,
html-keyboard-response,750,1145446,8654.199999988079,"<p> Good job! You have responded correctly to 96% of the trials. </p>
                      <p>Be sure to only press the spacebar if you see a GREEN square, and please keep your accuracy above 80%.</p>
                      <p> Press any key to continue the experiment. </p>",32,,,,,,,,,,,,,,,
html-keyboard-response,751,1146507,1059,"<div style=""font-size:48px;"">Press any key to begin list 7 of 16 </div>",32,,,,,,,,,,,,,,,
html-keyboard-response,752,1149013,null,"<div style=""font-size:60px;"">+</div>",null,,,,,,,,,,,,,,,
html-keyboard-response,753,1149221,null,"<div style=""font-size:42px;"">TOILET</div><img id = ""stim"" ><div class = red_square id = bottomsquare></div>",null,encoding,word_square,,,0,bottomsquare,none,true,,,TOILET,6,,,
html-keyboard-response,754,1149525,null,"<div style=""font-size:42px;"">TOILET</div>",null,,word,TOILET,,,,,,,,,,,,
html-keyboard-response,755,1151029,null,"",null,,word,TOILET,,,,,,,,,,,,
html-keyboard-response,756,1151233,null,"<div style=""font-size:42px;"">BISON</div><img id = ""stim"" ><div class = green_square id = topsquare></div>",null,encoding,word_square,,,1,topsquare,32,true,,,BISON,6,,,
html-keyboard-response,757,1151538,null,"<div style=""font-size:42px;"">BISON</div>",null,,word,BISON,,,,,,,,,,,,
html-keyboard-response,758,1153041,58.39999997615814,"",32,,word,BISON,,,,,,,,,,,,
html-keyboard-response,759,1153246,null,"<div style=""font-size:42px;"">CATTLE</div><img id = ""stim"" ><div class = red_square id = topsquare></div>",null,encoding,word_square,,,0,topsquare,none,true,,,CATTLE,6,,,
html-keyboard-response,760,1153553,null,"<div style=""font-size:42px;"">CATTLE</div>",null,,word,CATTLE,,,,,,,,,,,,
html-keyboard-response,761,1155057,null,"",null,,word,CATTLE,,,,,,,,,,,,
html-keyboard-response,762,1155263,null,"<div style=""font-size:42px;"">CABBAGE</div><img id = ""stim"" ><div class = green_square id = bottomsquare></div>",null,encoding,word_square,,,1,bottomsquare,32,true,,,CABBAGE,6,,,
html-keyboard-response,763,1155566,null,"<div style=""font-size:42px;"">CABBAGE</div>",null,,word,CABBAGE,,,,,,,,,,,,
html-keyboard-response,764,1157068,78.59999996423721,"",32,,word,CABBAGE,,,,,,,,,,,,
html-keyboard-response,765,1157273,null,"<div style=""font-size:42px;"">TRANSPLANT</div><img id = ""stim"" ><div class = red_square id = bottomsquare></div>",null,encoding,word_square,,,0,bottomsquare,none,true,,,TRANSPLANT,6,,,
html-keyboard-response,766,1157576,null,"<div style=""font-size:42px;"">TRANSPLANT</div>",null,,word,TRANSPLANT,,,,,,,,,,,,
html-keyboard-response,767,1159079,null,"",null,,word,TRANSPLANT,,,,,,,,,,,,
html-keyboard-response,768,1159283,null,"<div style=""font-size:42px;"">STAPLE</div><img id = ""stim"" ><div class = green_square id = topsquare></div>",null,encoding,word_square,,,1,topsquare,32,true,,,STAPLE,6,,,
html-keyboard-response,769,1159590,null,"<div style=""font-size:42px;"">STAPLE</div>",null,,word,STAPLE,,,,,,,,,,,,
html-keyboard-response,770,1161093,71.69999998807907,"",32,,word,STAPLE,,,,,,,,,,,,
html-keyboard-response,771,1161297,null,"<div style=""font-size:42px;"">MONARCH</div><img id = ""stim"" ><div class = green_square id = bottomsquare></div>",null,encoding,word_square,,,1,bottomsquare,32,true,,,MONARCH,6,,,
html-keyboard-response,772,1161599,null,"<div style=""font-size:42px;"">MONARCH</div>",null,,word,MONARCH,,,,,,,,,,,,
html-keyboard-response,773,1163103,380.60000002384186,"",32,,word,MONARCH,,,,,,,,,,,,
html-keyboard-response,774,1163308,null,"<div style=""font-size:42px;"">TURNIP</div><img id = ""stim"" ><div class = red_square id = topsquare></div>",null,encoding,word_square,,,0,topsquare,none,true,,,TURNIP,6,,,
html-keyboard-response,775,1163611,null,"<div style=""font-size:42px;"">TURNIP</div>",null,,word,TURNIP,,,,,,,,,,,,
html-keyboard-response,776,1165114,null,"",null,,word,TURNIP,,,,,,,,,,,,
html-keyboard-response,777,1165318,null,"<div style=""font-size:42px;"">STOCKING</div><img id = ""stim"" ><div class = red_square id = bottomsquare></div>",null,encoding,word_square,,,0,bottomsquare,none,true,,,STOCKING,6,,,
html-keyboard-response,778,1165621,null,"<div style=""font-size:42px;"">STOCKING</div>",null,,word,STOCKING,,,,,,,,,,,,
html-keyboard-response,779,1167124,null,"",null,,word,STOCKING,,,,,,,,,,,,
html-keyboard-response,780,1167327,null,"<div style=""font-size:42px;"">HAND</div><img id = ""stim"" ><div class = green_square id = topsquare></div>",null,encoding,word_square,,,1,topsquare,32,true,,,HAND,6,,,
html-keyboard-response,781,1167630,null,"<div style=""font-size:42px;"">HAND</div>",null,,word,HAND,,,,,,,,,,,,
html-keyboard-response,782,1169134,188.80000001192093,"",32,,word,HAND,,,,,,,,,,,,
html-keyboard-response,783,1169338,null,"<div style=""font-size:42px;"">CHARCOAL</div><img id = ""stim"" ><div class = green_square id = bottomsquare></div>",null,encoding,word_square,,,1,bottomsquare,32,false,,,CHARCOAL,6,,,
html-keyboard-response,784,1169642,null,"<div style=""font-size:42px;"">CHARCOAL</div>",null,,word,CHARCOAL,,,,,,,,,,,,
html-keyboard-response,785,1171146,null,"",null,,word,CHARCOAL,,,,,,,,,,,,
html-keyboard-response,786,1171351,null,"<div style=""font-size:42px;"">BELLY</div><img id = ""stim"" ><div class = red_square id = topsquare></div>",null,encoding,word_square,,,0,topsquare,none,true,,,BELLY,6,,,
html-keyboard-response,787,1171654,null,"<div style=""font-size:42px;"">BELLY</div>",null,,word,BELLY,,,,,,,,,,,,
html-keyboard-response,788,1173158,null,"",null,,word,BELLY,,,,,,,,,,,,
html-keyboard-response,789,1173362,null,"<div style=""font-size:42px;"">MASK</div><img id = ""stim"" ><div class = red_square id = bottomsquare></div>",null,encoding,word_square,,,0,bottomsquare,none,false,,,MASK,6,,,
html-keyboard-response,790,1173665,null,"<div style=""font-size:42px;"">MASK</div>",null,,word,MASK,,,,,,,,,,,,
html-keyboard-response,791,1175169,485.4000000357628,"",32,,word,MASK,,,,,,,,,,,,
html-keyboard-response,792,1175373,null,"<div style=""font-size:42px;"">ISLAND</div><img id = ""stim"" ><div class = green_square id = topsquare></div>",null,encoding,word_square,,,1,topsquare,32,true,,,ISLAND,6,,,
html-keyboard-response,793,1175677,164.60000002384186,"<div style=""font-size:42px;"">ISLAND</div>",32,,word,ISLAND,,,,,,,,,,,,
html-keyboard-response,794,1177183,null,"",null,,word,ISLAND,,,,,,,,,,,,
html-keyboard-response,795,1177387,null,"<div style=""font-size:42px;"">PRINCESS</div><img id = ""stim"" ><div class = green_square id = bottomsquare></div>",null,encoding,word_square,,,1,bottomsquare,32,true,,,PRINCESS,6,,,
html-keyboard-response,796,1177690,null,"<div style=""font-size:42px;"">PRINCESS</div>",null,,word,PRINCESS,,,,,,,,,,,,
html-keyboard-response,797,1179194,210.5999999642372,"",32,,word,PRINCESS,,,,,,,,,,,,
html-keyboard-response,798,1179398,null,"<div style=""font-size:42px;"">STREET</div><img id = ""stim"" ><div class = red_square id = topsquare></div>",null,encoding,word_square,,,0,topsquare,none,true,,,STREET,6,,,
html-keyboard-response,799,1179702,null,"<div style=""font-size:42px;"">STREET</div>",null,,word,STREET,,,,,,,,,,,,
html-keyboard-response,800,1181206,null,"",null,,word,STREET,,,,,,,,,,,,
call-function,801,1181209,,"",,,,,,,,,,,,,,,,
html-keyboard-response,802,1181312,null,"",null,,,,,,,,,,,,,,,
math-period,803,1186257,8509.500000059605,"",,,,,,,,,,,2,,,,,
html-keyboard-response,804,1186361,null,"",null,,,,,,,,,,,,,,,
math-period,805,1187963,2944.800000011921,"",,,,,,,,,,,5,,,,,
html-keyboard-response,806,1188065,null,"",null,,,,,,,,,,,,,,,
math-period,807,1189395,2484.7000000476837,"",,,,,,,,,,,3,,,,,
html-keyboard-response,808,1189497,null,"",null,,,,,,,,,,,,,,,
math-period,809,1190864,3642.399999976158,"",,,,,,,,,,,5ctrl,,,,,
html-keyboard-response,810,1190967,null,"",null,,,,,,,,,,,,,,,
math-period,811,1193749,5299.300000011921,"",,,,,,,,,,,1,,,,,
html-keyboard-response,812,1193853,null,"",null,,,,,,,,,,,,,,,
math-period,813,1195543,3132.9999999403954,"",,,,,,,,,,,6,,,,,
html-keyboard-response,814,1195648,null,"",null,,,,,,,,,,,,,,,
math-period,815,1197197,2820.199999988079,"",,,,,,,,,,,4,,,,,
html-keyboard-response,816,1197300,null,"",null,,,,,,,,,,,,,,,
math-period,817,1199627,4469.499999940395,"",,,,,,,,,,,3,,,,,
html-keyboard-response,818,1199731,null,"",null,,,,,,,,,,,,,,,
math-period,819,1201239,2738.0000000596046,"",,,,,,,,,,,4,,,,,
html-keyboard-response,820,1201342,null,"",null,,,,,,,,,,,,,,,
math-period,821,1203456,4015.300000011921,"",,,,,,,,,,,2,,,,,
html-keyboard-response,822,1203558,null,"",null,,,,,,,,,,,,,,,
math-period,823,1205211,null,"",,,,,,,,,,,,,,,,
html-keyboard-response,824,1206214,null,"Recall Period!",null,,,,,,,,,,,,,,,
call-function,825,1206215,,"",,,,,,,,,,,,,,,,
html-keyboard-response,826,1206317,null,"",null,,,,,,,,,,,,,,,
recall-period,827,1211063,35857.00000011921,"",,,,,,,,,,,princess,,,,,
html-keyboard-response,828,1211167,null,"",null,,,,,,,,,,,,,,,
recall-period,829,1217433,28881.099999904633,"",,,,,,,,,,,belly,,,,,
html-keyboard-response,830,1217537,null,"",null,,,,,,,,,,,,,,,
recall-period,831,1223286,15858.499999940395,"",,,,,,,,,,,hand,,,,,
html-keyboard-response,832,1223389,null,"",null,,,,,,,,,,,,,,,
recall-period,833,1229745,26424.600000023842,"",,,,,,,,,,,staple,,,,,
html-keyboard-response,834,1229849,null,"",null,,,,,,,,,,,,,,,
recall-period,835,1235863,25527.000000059605,"",,,,,,,,,,,cattle,,,,,
html-keyboard-response,836,1235966,null,"",null,,,,,,,,,,,,,,,
recall-period,837,1241295,21154.000000178814,"",,,,,,,,,,,toilet,,,,,
html-keyboard-response,838,1241397,null,"",null,,,,,,,,,,,,,,,
recall-period,839,1244867,16277.300000071526,"",,,,,,,,,,,bison,,,,,
html-keyboard-response,840,1244970,null,"",null,,,,,,,,,,,,,,,
recall-period,841,1248723,26175.899999976158,"",,,,,,,,,,,cabbage,,,,,
html-keyboard-response,842,1248826,null,"",null,,,,,,,,,,,,,,,
recall-period,843,1253130,24208.799999773502,"",,,,,,,,,,,monarch,,,,,
html-keyboard-response,844,1253234,null,"",null,,,,,,,,,,,,,,,
recall-period,845,1259080,29650.80000001192,"",,,,,,,,,,,charcoal,,,,,
html-keyboard-response,846,1259183,null,"",null,,,,,,,,,,,,,,,
recall-period,847,1261603,6398.799999952316,"",,,,,,,,,,,mask,,,,,
html-keyboard-response,848,1261706,null,"",null,,,,,,,,,,,,,,,
recall-period,849,1281218,null,"",,,,,,,,,,,,,,,,
html-keyboard-response,850,1281721,null,"Time's Up!",null,,,,,,,,,,,,,,,
html-keyboard-response,851,1290288,8564,"<p> Good job! You have responded correctly to 95% of the trials. </p>
                      <p>Be sure to only press the spacebar if you see a GREEN square, and please keep your accuracy above 80%.</p>
                      <p> Press any key to continue the experiment. </p>",32,,,,,,,,,,,,,,,
html-keyboard-response,852,1291829,1539.199999988079,"<div style=""font-size:48px;"">Press any key to begin list 8 of 16 </div>",32,,,,,,,,,,,,,,,
html-keyboard-response,853,1294334,null,"<div style=""font-size:60px;"">+</div>",null,,,,,,,,,,,,,,,
html-keyboard-response,854,1294539,null,"<div style=""font-size:42px;"">STOMACH</div><img id = ""stim"" ><div class = red_square id = topsquare></div>",null,encoding,word_square,,,0,topsquare,none,true,,,STOMACH,7,,,
html-keyboard-response,855,1294841,null,"<div style=""font-size:42px;"">STOMACH</div>",null,,word,STOMACH,,,,,,,,,,,,
html-keyboard-response,856,1296345,null,"",null,,word,STOMACH,,,,,,,,,,,,
html-keyboard-response,857,1296547,null,"<div style=""font-size:42px;"">ULCER</div><img id = ""stim"" ><div class = green_square id = bottomsquare></div>",null,encoding,word_square,,,1,bottomsquare,32,true,,,ULCER,7,,,
html-keyboard-response,858,1296852,270.5,"<div style=""font-size:42px;"">ULCER</div>",32,,word,ULCER,,,,,,,,,,,,
html-keyboard-response,859,1298356,null,"",null,,word,ULCER,,,,,,,,,,,,
html-keyboard-response,860,1298564,null,"<div style=""font-size:42px;"">EUROPE</div><img id = ""stim"" ><div class = green_square id = topsquare></div>",null,encoding,word_square,,,1,topsquare,32,true,,,EUROPE,7,,,
html-keyboard-response,861,1298869,null,"<div style=""font-size:42px;"">EUROPE</div>",null,,word,EUROPE,,,,,,,,,,,,
html-keyboard-response,862,1300373,331,"",32,,word,EUROPE,,,,,,,,,,,,
html-keyboard-response,863,1300578,null,"<div style=""font-size:42px;"">GRAVE</div><img id = ""stim"" ><div class = red_square id = bottomsquare></div>",null,encoding,word_square,,,0,bottomsquare,none,true,,,GRAVE,7,,,
html-keyboard-response,864,1300880,null,"<div style=""font-size:42px;"">GRAVE</div>",null,,word,GRAVE,,,,,,,,,,,,
html-keyboard-response,865,1302387,null,"",null,,word,GRAVE,,,,,,,,,,,,
html-keyboard-response,866,1302591,null,"<div style=""font-size:42px;"">TOMBSTONE</div><img id = ""stim"" ><div class = red_square id = topsquare></div>",null,encoding,word_square,,,0,topsquare,none,true,,,TOMBSTONE,7,,,
html-keyboard-response,867,1302895,null,"<div style=""font-size:42px;"">TOMBSTONE</div>",null,,word,TOMBSTONE,,,,,,,,,,,,
html-keyboard-response,868,1304399,null,"",null,,word,TOMBSTONE,,,,,,,,,,,,
html-keyboard-response,869,1304603,null,"<div style=""font-size:42px;"">TRUCK</div><img id = ""stim"" ><div class = green_square id = bottomsquare></div>",null,encoding,word_square,,,1,bottomsquare,32,true,,,TRUCK,7,,,
html-keyboard-response,870,1304906,null,"<div style=""font-size:42px;"">TRUCK</div>",null,,word,TRUCK,,,,,,,,,,,,
html-keyboard-response,871,1306411,65.89999997615814,"",32,,word,TRUCK,,,,,,,,,,,,
html-keyboard-response,872,1306616,null,"<div style=""font-size:42px;"">EYELASH</div><img id = ""stim"" ><div class = green_square id = topsquare></div>",null,encoding,word_square,,,1,topsquare,32,true,,,EYELASH,7,,,
html-keyboard-response,873,1306919,null,"<div style=""font-size:42px;"">EYELASH</div>",null,,word,EYELASH,,,,,,,,,,,,
html-keyboard-response,874,1308423,239.69999998807907,"",32,,word,EYELASH,,,,,,,,,,,,
html-keyboard-response,875,1308626,null,"<div style=""font-size:42px;"">FROG</div><img id = ""stim"" ><div class = red_square id = bottomsquare></div>",null,encoding,word_square,,,0,bottomsquare,none,true,,,FROG,7,,,
html-keyboard-response,876,1308929,null,"<div style=""font-size:42px;"">FROG</div>",null,,word,FROG,,,,,,,,,,,,
html-keyboard-response,877,1310435,null,"",null,,word,FROG,,,,,,,,,,,,
html-keyboard-response,878,1310641,null,"<div style=""font-size:42px;"">OX</div><img id = ""stim"" ><div class = red_square id = topsquare></div>",null,encoding,word_square,,,0,topsquare,none,false,,,OX,7,,,
html-keyboard-response,879,1310944,null,"<div style=""font-size:42px;"">OX</div>",null,,word,OX,,,,,,,,,,,,
html-keyboard-response,880,1312449,65.20000004768372,"",32,,word,OX,,,,,,,,,,,,
html-keyboard-response,881,1312656,null,"<div style=""font-size:42px;"">CAFE</div><img id = ""stim"" ><div class = green_square id = bottomsquare></div>",null,encoding,word_square,,,1,bottomsquare,32,true,,,CAFE,7,,,
html-keyboard-response,882,1312963,null,"<div style=""font-size:42px;"">CAFE</div>",null,,word,CAFE,,,,,,,,,,,,
html-keyboard-response,883,1314468,13.5,"",32,,word,CAFE,,,,,,,,,,,,
html-keyboard-response,884,1314672,null,"<div style=""font-size:42px;"">BRANDY</div><img id = ""stim"" ><div class = green_square id = topsquare></div>",null,encoding,word_square,,,1,topsquare,32,true,,,BRANDY,7,,,
html-keyboard-response,885,1314976,null,"<div style=""font-size:42px;"">BRANDY</div>",null,,word,BRANDY,,,,,,,,,,,,
html-keyboard-response,886,1316486,494,"",32,,word,BRANDY,,,,,,,,,,,,
html-keyboard-response,887,1316691,null,"<div style=""font-size:42px;"">BEETLE</div><img id = ""stim"" ><div class = red_square id = bottomsquare></div>",null,encoding,word_square,,,0,bottomsquare,none,true,,,BEETLE,7,,,
html-keyboard-response,888,1316995,null,"<div style=""font-size:42px;"">BEETLE</div>",null,,word,BEETLE,,,,,,,,,,,,
html-keyboard-response,889,1318513,null,"",null,,word,BEETLE,,,,,,,,,,,,
html-keyboard-response,890,1318717,null,"<div style=""font-size:42px;"">FLASK</div><img id = ""stim"" ><div class = green_square id = bottomsquare></div>",null,encoding,word_square,,,1,bottomsquare,32,true,,,FLASK,7,,,
html-keyboard-response,891,1319021,null,"<div style=""font-size:42px;"">FLASK</div>",null,,word,FLASK,,,,,,,,,,,,
html-keyboard-response,892,1320524,178.79999995231628,"",32,,word,FLASK,,,,,,,,,,,,
html-keyboard-response,893,1320728,null,"<div style=""font-size:42px;"">BROOK</div><img id = ""stim"" ><div class = red_square id = topsquare></div>",null,encoding,word_square,,,0,topsquare,none,false,,,BROOK,7,,,
html-keyboard-response,894,1321032,null,"<div style=""font-size:42px;"">BROOK</div>",null,,word,BROOK,,,,,,,,,,,,
html-keyboard-response,895,1322537,222.89999997615814,"",32,,word,BROOK,,,,,,,,,,,,
html-keyboard-response,896,1322740,null,"<div style=""font-size:42px;"">COLESLAW</div><img id = ""stim"" ><div class = green_square id = topsquare></div>",null,encoding,word_square,,,1,topsquare,32,false,,,COLESLAW,7,,,
html-keyboard-response,897,1323042,null,"<div style=""font-size:42px;"">COLESLAW</div>",null,,word,COLESLAW,,,,,,,,,,,,
html-keyboard-response,898,1324547,null,"",null,,word,COLESLAW,,,,,,,,,,,,
html-keyboard-response,899,1324751,null,"<div style=""font-size:42px;"">COUNTRY</div><img id = ""stim"" ><div class = red_square id = bottomsquare></div>",null,encoding,word_square,,,0,bottomsquare,none,true,,,COUNTRY,7,,,
html-keyboard-response,900,1325054,null,"<div style=""font-size:42px;"">COUNTRY</div>",null,,word,COUNTRY,,,,,,,,,,,,
html-keyboard-response,901,1326557,null,"",null,,word,COUNTRY,,,,,,,,,,,,
call-function,902,1326559,,"",,,,,,,,,,,,,,,,
html-keyboard-response,903,1326662,null,"",null,,,,,,,,,,,,,,,
math-period,904,1329323,4695,"",,,,,,,,,,,5,,,,,
html-keyboard-response,905,1329425,null,"",null,,,,,,,,,,,,,,,
math-period,906,1331111,3247.8999999165535,"",,,,,,,,,,,1,,,,,
html-keyboard-response,907,1331214,null,"",null,,,,,,,,,,,,,,,
math-period,908,1332763,2878.0000000596046,"",,,,,,,,,,,4,,,,,
html-keyboard-response,909,1332868,null,"",null,,,,,,,,,,,,,,,
math-period,910,1334156,2331.599999964237,"",,,,,,,,,,,4,,,,,
html-keyboard-response,911,1334259,null,"",null,,,,,,,,,,,,,,,
math-period,912,1335160,1621.6000000238419,"",,,,,,,,,,,4,,,,,
html-keyboard-response,913,1335263,null,"",null,,,,,,,,,,,,,,,
math-period,914,1336634,2559.6999999284744,"",,,,,,,,,,,3,,,,,
html-keyboard-response,915,1336736,null,"",null,,,,,,,,,,,,,,,
math-period,916,1338781,3887.300000011921,"",,,,,,,,,,,1,,,,,
html-keyboard-response,917,1338884,null,"",null,,,,,,,,,,,,,,,
math-period,918,1340751,3515.6000000834465,"",,,,,,,,,,,1,,,,,
html-keyboard-response,919,1340854,null,"",null,,,,,,,,,,,,,,,
math-period,920,1342422,2894.300000011921,"",,,,,,,,,,,4,,,,,
html-keyboard-response,921,1342525,null,"",null,,,,,,,,,,,,,,,
math-period,922,1344000,2725.7000000476837,"",,,,,,,,,,,6,,,,,
html-keyboard-response,923,1344103,null,"",null,,,,,,,,,,,,,,,
math-period,924,1345400,2384.2999999523163,"",,,,,,,,,,,3,,,,,
html-keyboard-response,925,1345503,null,"",null,,,,,,,,,,,,,,,
math-period,926,1346792,2404.2999999523163,"",,,,,,,,,,,6,,,,,
html-keyboard-response,927,1346895,null,"",null,,,,,,,,,,,,,,,
math-period,928,1348291,2580.599999964237,"",,,,,,,,,,,4,,,,,
html-keyboard-response,929,1348394,null,"",null,,,,,,,,,,,,,,,
math-period,930,1349604,2250,"",,,,,,,,,,,3,,,,,
html-keyboard-response,931,1349707,null,"",null,,,,,,,,,,,,,,,
math-period,932,1350561,null,"",,,,,,,,,,,,,,,,
html-keyboard-response,933,1351565,null,"Recall Period!",null,,,,,,,,,,,,,,,
call-function,934,1351567,,"",,,,,,,,,,,,,,,,
html-keyboard-response,935,1351670,null,"",null,,,,,,,,,,,,,,,
recall-period,936,1355139,20977.999999940395,"",,,,,,,,,,,country,,,,,
html-keyboard-response,937,1355243,null,"",null,,,,,,,,,,,,,,,
recall-period,938,1359952,15319.299999833107,"",,,,,,,,,,,beetle,,,,,
html-keyboard-response,939,1360056,null,"",null,,,,,,,,,,,,,,,
recall-period,940,1364795,7712.099999904633,"",,,,,,,,,,,cafe,,,,,
html-keyboard-response,941,1364900,null,"",null,,,,,,,,,,,,,,,
recall-period,942,1369055,6574.699999928474,"",,,,,,,,,,,frog,,,,,
html-keyboard-response,943,1369158,null,"",null,,,,,,,,,,,,,,,
recall-period,944,1374158,16408.200000047684,"",,,,,,,,,,,tombstone,,,,,
