trial_type,trial_index,time_elapsed,rt,stimulus,key_press,exp_phase,test_part,word,task,targ_cond,sq_pos,correctKeyCode,correct,value,response,Word,List,RecResp,serial_pos,colorChosen
pavlovia,0,2519,,"",,,,,,,,,,,,,,,,
external-html,1,19143,16477.099999964237,"",,,,,,,,,,,,,,,,
html-keyboard-response,2,20660,1515.1000000238419,"Welcome to the experiment. Press any key to begin.",74,,,,,,,,,,,,,,,
html-keyboard-response,3,39458,18796,"<p>You will see a list of words and colored squares in the following task.<p><p>Press the spacebar whenever you see a GREEN square.<p><p>Do not press a key if the square is RED.<p><p>Press the spacebar to continue.</p>",32,,,,,,,,,,,,,,,
html-keyboard-response,4,53849,13888.199999988079,"<p>Please try to remember as many of the words as you can, and try to think about the meaning of each word as it appears.<p><p>After the detection and encoding task you will be asked to solve some math problems for 24 seconds.<p> Please solve as many problems as you can in the time given. <p><p><p>Press the spacebar to continue.</p>",32,,,,,,,,,,,,,,,
html-keyboard-response,5,57259,2899,"After solving the math problems, you will be asked to type in as many words <p>from the previous list as you can remember for 75 seconds.<p> If you finish recalling before the 75 seconds are up,<p> just sit tight and try to think of any more words you could have missed. <p><p><p>Press the spacebar to continue.</p>",32,,,,,,,,,,,,,,,
html-keyboard-response,6,59278,1504.7000000476837,"There will be 16 lists of words and recall, followed  by<p><p> a recognition phase. The experiment is expected to take up to 90 minutes.<p>We will begin with a brief practice session.<p>Press the spacebar to begin the practice.</p>",32,,,,,,,,,,,,,,,
html-keyboard-response,7,61796,null,"<div style=""font-size:60px;"">+</div>",null,,,,,,,,,,,,,,,
html-keyboard-response,8,62015,null,"<div style=""font-size:42px;"">HAPPY</div><img id = ""stim"" ><div class = red_square id = ""bottomsquare"" ></div>",null,practice,word_square,HAPPY,prac_response,0,Bottom,none,true,,,,,,,
html-keyboard-response,9,62325,null,"<div style=""font-size:42px;"">HAPPY</div>",null,,word,HAPPY,,,,,,,,,,,,
html-keyboard-response,10,63837,null,"",null,,word,HAPPY,,,,,,,,,,,,
html-keyboard-response,11,64042,null,"<div style=""font-size:42px;"">COLD</div><img id = ""stim"" ><div class = green_square id = ""bottomsquare"" ></div>",null,practice,word_square,COLD,prac_response,1,Bottom,32,true,,,,,,,
html-keyboard-response,12,64353,234.29999995231628,"<div style=""font-size:42px;"">COLD</div>",32,,word,COLD,,,,,,,,,,,,
html-keyboard-response,13,65869,null,"",null,,word,COLD,,,,,,,,,,,,
html-keyboard-response,14,66073,null,"<div style=""font-size:42px;"">HEAVY</div><img id = ""stim"" ><div class = green_square id = ""topsquare"" ></div>",null,practice,word_square,HEAVY,prac_response,1,Top,32,true,,,,,,,
html-keyboard-response,15,66388,189.30000001192093,"<div style=""font-size:42px;"">HEAVY</div>",32,,word,HEAVY,,,,,,,,,,,,
html-keyboard-response,16,67889,null,"",null,,word,HEAVY,,,,,,,,,,,,
html-keyboard-response,17,68092,null,"<div style=""font-size:42px;"">FUNNY</div><img id = ""stim"" ><div class = red_square id = ""topsquare"" ></div>",null,practice,word_square,FUNNY,prac_response,0,Top,none,true,,,,,,,
html-keyboard-response,18,68406,null,"<div style=""font-size:42px;"">FUNNY</div>",null,,word,FUNNY,,,,,,,,,,,,
html-keyboard-response,19,69915,null,"",null,,word,FUNNY,,,,,,,,,,,,
html-keyboard-response,20,70118,null,"<div style=""font-size:42px;"">SCARY</div><img id = ""stim"" ><div class = green_square id = ""bottomsquare"" ></div>",null,practice,word_square,SCARY,prac_response,1,Bottom,32,true,,,,,,,
html-keyboard-response,21,70433,235.60000002384186,"<div style=""font-size:42px;"">SCARY</div>",32,,word,SCARY,,,,,,,,,,,,
html-keyboard-response,22,71937,null,"",null,,word,SCARY,,,,,,,,,,,,
html-keyboard-response,23,72154,null,"<div style=""font-size:42px;"">PEACEFUL</div><img id = ""stim"" ><div class = green_square id = ""topsquare"" ></div>",null,practice,word_square,PEACEFUL,prac_response,1,Top,32,true,,,,,,,
html-keyboard-response,24,72456,194.69999998807907,"<div style=""font-size:42px;"">PEACEFUL</div>",32,,word,PEACEFUL,,,,,,,,,,,,
html-keyboard-response,25,73969,null,"",null,,word,PEACEFUL,,,,,,,,,,,,
html-keyboard-response,26,74173,null,"<div style=""font-size:42px;"">LITTLE</div><img id = ""stim"" ><div class = red_square id = ""bottomsquare"" ></div>",null,practice,word_square,LITTLE,prac_response,0,Bottom,none,true,,,,,,,
html-keyboard-response,27,74485,null,"<div style=""font-size:42px;"">LITTLE</div>",null,,word,LITTLE,,,,,,,,,,,,
html-keyboard-response,28,75999,null,"",null,,word,LITTLE,,,,,,,,,,,,
html-keyboard-response,29,76201,null,"<div style=""font-size:42px;"">TIRED</div><img id = ""stim"" ><div class = red_square id = ""topsquare"" ></div>",null,practice,word_square,TIRED,prac_response,0,Top,none,true,,,,,,,
html-keyboard-response,30,76504,null,"<div style=""font-size:42px;"">TIRED</div>",null,,word,TIRED,,,,,,,,,,,,
html-keyboard-response,31,78020,null,"",null,,word,TIRED,,,,,,,,,,,,
html-keyboard-response,32,78225,null,"<div style=""font-size:42px;"">ENTERTAINING</div><img id = ""stim"" ><div class = red_square id = ""bottomsquare"" ></div>",null,practice,word_square,ENTERTAINING,prac_response,0,Bottom,none,true,,,,,,,
html-keyboard-response,33,78539,null,"<div style=""font-size:42px;"">ENTERTAINING</div>",null,,word,ENTERTAINING,,,,,,,,,,,,
html-keyboard-response,34,80045,null,"",null,,word,ENTERTAINING,,,,,,,,,,,,
html-keyboard-response,35,80248,null,"<div style=""font-size:42px;"">GRATEFUL</div><img id = ""stim"" ><div class = green_square id = ""bottomsquare"" ></div>",null,practice,word_square,GRATEFUL,prac_response,1,Bottom,32,true,,,,,,,
html-keyboard-response,36,80552,183.9000000357628,"<div style=""font-size:42px;"">GRATEFUL</div>",32,,word,GRATEFUL,,,,,,,,,,,,
html-keyboard-response,37,82060,null,"",null,,word,GRATEFUL,,,,,,,,,,,,
html-keyboard-response,38,82265,null,"<div style=""font-size:42px;"">LOUD</div><img id = ""stim"" ><div class = red_square id = ""topsquare"" ></div>",null,practice,word_square,LOUD,prac_response,0,Top,none,true,,,,,,,
html-keyboard-response,39,82579,null,"<div style=""font-size:42px;"">LOUD</div>",null,,word,LOUD,,,,,,,,,,,,
html-keyboard-response,40,84082,null,"",null,,word,LOUD,,,,,,,,,,,,
html-keyboard-response,41,84287,null,"<div style=""font-size:42px;"">SMART</div><img id = ""stim"" ><div class = green_square id = ""topsquare"" ></div>",null,practice,word_square,SMART,prac_response,1,Top,32,true,,,,,,,
html-keyboard-response,42,84598,178.0999999642372,"<div style=""font-size:42px;"">SMART</div>",32,,word,SMART,,,,,,,,,,,,
html-keyboard-response,43,86105,null,"",null,,word,SMART,,,,,,,,,,,,
html-keyboard-response,44,86322,null,"<div style=""font-size:42px;"">SMOOTH</div><img id = ""stim"" ><div class = green_square id = ""bottomsquare"" ></div>",null,practice,word_square,SMOOTH,prac_response,1,Bottom,32,true,,,,,,,
html-keyboard-response,45,86632,161.80000001192093,"<div style=""font-size:42px;"">SMOOTH</div>",32,,word,SMOOTH,,,,,,,,,,,,
html-keyboard-response,46,88137,null,"",null,,word,SMOOTH,,,,,,,,,,,,
html-keyboard-response,47,88340,null,"<div style=""font-size:42px;"">DISHONEST</div><img id = ""stim"" ><div class = red_square id = ""bottomsquare"" ></div>",null,practice,word_square,DISHONEST,prac_response,0,Bottom,none,true,,,,,,,
html-keyboard-response,48,88652,null,"<div style=""font-size:42px;"">DISHONEST</div>",null,,word,DISHONEST,,,,,,,,,,,,
html-keyboard-response,49,90159,null,"",null,,word,DISHONEST,,,,,,,,,,,,
html-keyboard-response,50,90364,null,"<div style=""font-size:42px;"">WEALTHY</div><img id = ""stim"" ><div class = green_square id = ""topsquare"" ></div>",null,practice,word_square,WEALTHY,prac_response,1,Top,32,true,,,,,,,
html-keyboard-response,51,90677,180.19999998807907,"<div style=""font-size:42px;"">WEALTHY</div>",32,,word,WEALTHY,,,,,,,,,,,,
html-keyboard-response,52,92193,null,"",null,,word,WEALTHY,,,,,,,,,,,,
html-keyboard-response,53,92396,null,"<div style=""font-size:42px;"">BEAUTIFUL</div><img id = ""stim"" ><div class = red_square id = ""topsquare"" ></div>",null,practice,word_square,BEAUTIFUL,prac_response,0,Top,none,true,,,,,,,
html-keyboard-response,54,92710,null,"<div style=""font-size:42px;"">BEAUTIFUL</div>",null,,word,BEAUTIFUL,,,,,,,,,,,,
html-keyboard-response,55,94224,null,"",null,,word,BEAUTIFUL,,,,,,,,,,,,
html-keyboard-response,56,100088,5861.199999988079,"<p> Good job! You responded correctly to 100% of the trials. </p>
                  <p>Be sure to only press the spacebar if you see a GREEN square, and please keep your accuracy above 80%.</p>
                  <p>We're going to try once more to make sure you understand the task. press any key to continue. </p>",72,,,,,,,,,,,,,,,
html-keyboard-response,57,109859,9769.900000035763,"<p>You will see a list of words and colored squares in the following task.<p><p>Press the spacebar whenever you see a GREEN square.<p><p>Do not press a key if the square is RED<p><p>Press the spacebar to continue.</p>",32,,,,,,,,,,,,,,,
html-keyboard-response,58,112380,null,"<div style=""font-size:60px;"">+</div>",null,,,,,,,,,,,,,,,
html-keyboard-response,59,112584,null,"<div style=""font-size:42px;"">HAPPY</div><img id = ""stim"" ><div class = red_square id = ""bottomsquare"" ></div>",null,practice2,word_square,HAPPY,prac_response,0,Bottom,none,true,,,,,,,
html-keyboard-response,60,112897,null,"<div style=""font-size:42px;"">HAPPY</div>",null,,word,HAPPY,,,,,,,,,,,,
html-keyboard-response,61,114406,null,"",null,,word,HAPPY,,,,,,,,,,,,
html-keyboard-response,62,114610,null,"<div style=""font-size:42px;"">COLD</div><img id = ""stim"" ><div class = green_square id = ""bottomsquare"" ></div>",null,practice2,word_square,,prac_response,1,Bottom,32,true,,,,,,,
html-keyboard-response,63,114924,140.60000002384186,"<div style=""font-size:42px;"">COLD</div>",32,,word,COLD,,,,,,,,,,,,
html-keyboard-response,64,116437,null,"",null,,word,COLD,,,,,,,,,,,,
html-keyboard-response,65,116643,null,"<div style=""font-size:42px;"">HEAVY</div><img id = ""stim"" ><div class = green_square id = ""topsquare"" ></div>",null,practice2,word_square,,prac_response,1,Top,32,true,,,,,,,
html-keyboard-response,66,116946,188.69999998807907,"<div style=""font-size:42px;"">HEAVY</div>",32,,word,HEAVY,,,,,,,,,,,,
html-keyboard-response,67,118458,null,"",null,,word,HEAVY,,,,,,,,,,,,
html-keyboard-response,68,118663,null,"<div style=""font-size:42px;"">FUNNY</div><img id = ""stim"" ><div class = red_square id = ""topsquare"" ></div>",null,practice2,word_square,,prac_response,0,Top,none,true,,,,,,,
html-keyboard-response,69,118977,null,"<div style=""font-size:42px;"">FUNNY</div>",null,,word,FUNNY,,,,,,,,,,,,
html-keyboard-response,70,120481,null,"",null,,word,FUNNY,,,,,,,,,,,,
html-keyboard-response,71,120686,null,"<div style=""font-size:42px;"">SCARY</div><img id = ""stim"" ><div class = green_square id = ""bottomsquare"" ></div>",null,practice2,word_square,,prac_response,1,Bottom,32,true,,,,,,,
html-keyboard-response,72,120998,171.79999995231628,"<div style=""font-size:42px;"">SCARY</div>",32,,word,SCARY,,,,,,,,,,,,
html-keyboard-response,73,122502,null,"",null,,word,SCARY,,,,,,,,,,,,
html-keyboard-response,74,122719,null,"<div style=""font-size:42px;"">PEACEFUL</div><img id = ""stim"" ><div class = green_square id = ""topsquare"" ></div>",null,practice2,word_square,,prac_response,1,Top,32,true,,,,,,,
html-keyboard-response,75,123034,260,"<div style=""font-size:42px;"">PEACEFUL</div>",32,,word,PEACEFUL,,,,,,,,,,,,
html-keyboard-response,76,124538,null,"",null,,word,PEACEFUL,,,,,,,,,,,,
html-keyboard-response,77,124743,null,"<div style=""font-size:42px;"">LITTLE</div><img id = ""stim"" ><div class = red_square id = ""bottomsquare"" ></div>",null,practice2,word_square,LITTLE,prac_response,0,Bottom,none,true,,,,,,,
html-keyboard-response,78,125056,null,"<div style=""font-size:42px;"">LITTLE</div>",null,,word,LITTLE,,,,,,,,,,,,
html-keyboard-response,79,126572,null,"",null,,word,LITTLE,,,,,,,,,,,,
html-keyboard-response,80,126776,null,"<div style=""font-size:42px;"">TIRED</div><img id = ""stim"" ><div class = red_square id = ""topsquare"" ></div>",null,practice2,word_square,,prac_response,0,Top,none,true,,,,,,,
html-keyboard-response,81,127090,null,"<div style=""font-size:42px;"">TIRED</div>",null,,word,TIRED,,,,,,,,,,,,
html-keyboard-response,82,128607,null,"",null,,word,TIRED,,,,,,,,,,,,
html-keyboard-response,83,128810,null,"<div style=""font-size:42px;"">ENTERTAINING</div><img id = ""stim"" ><div class = red_square id = ""bottomsquare"" ></div>",null,practice2,word_square,ENTERTAINING,prac_response,0,Bottom,none,true,,,,,,,
html-keyboard-response,84,129122,null,"<div style=""font-size:42px;"">ENTERTAINING</div>",null,,word,ENTERTAINING,,,,,,,,,,,,
html-keyboard-response,85,130634,null,"",null,,word,ENTERTAINING,,,,,,,,,,,,
html-keyboard-response,86,130852,null,"<div style=""font-size:42px;"">GRATEFUL</div><img id = ""stim"" ><div class = green_square id = ""bottomsquare"" ></div>",null,practice2,word_square,,prac_response,1,Bottom,32,true,,,,,,,
html-keyboard-response,87,131164,147.5,"<div style=""font-size:42px;"">GRATEFUL</div>",32,,word,GRATEFUL,,,,,,,,,,,,
html-keyboard-response,88,132675,null,"",null,,word,GRATEFUL,,,,,,,,,,,,
html-keyboard-response,89,132892,null,"<div style=""font-size:42px;"">LOUD</div><img id = ""stim"" ><div class = red_square id = ""topsquare"" ></div>",null,practice2,word_square,,prac_response,0,Top,none,true,,,,,,,
html-keyboard-response,90,133207,null,"<div style=""font-size:42px;"">LOUD</div>",null,,word,LOUD,,,,,,,,,,,,
html-keyboard-response,91,134722,null,"",null,,word,LOUD,,,,,,,,,,,,
html-keyboard-response,92,134938,null,"<div style=""font-size:42px;"">SMART</div><img id = ""stim"" ><div class = green_square id = ""topsquare"" ></div>",null,practice2,word_square,,prac_response,1,Top,32,true,,,,,,,
html-keyboard-response,93,135250,138.10000002384186,"<div style=""font-size:42px;"">SMART</div>",32,,word,SMART,,,,,,,,,,,,
html-keyboard-response,94,136757,null,"",null,,word,SMART,,,,,,,,,,,,
html-keyboard-response,95,136974,null,"<div style=""font-size:42px;"">SMOOTH</div><img id = ""stim"" ><div class = green_square id = ""bottomsquare"" ></div>",null,practice2,word_square,,prac_response,1,Bottom,32,true,,,,,,,
html-keyboard-response,96,137286,207.39999997615814,"<div style=""font-size:42px;"">SMOOTH</div>",32,,word,SMOOTH,,,,,,,,,,,,
html-keyboard-response,97,138800,null,"",null,,word,SMOOTH,,,,,,,,,,,,
html-keyboard-response,98,139003,null,"<div style=""font-size:42px;"">DISHONEST</div><img id = ""stim"" ><div class = red_square id = ""bottomsquare"" ></div>",null,practice2,word_square,DISHONEST,prac_response,0,Bottom,none,true,,,,,,,
html-keyboard-response,99,139316,null,"<div style=""font-size:42px;"">DISHONEST</div>",null,,word,DISHONEST,,,,,,,,,,,,
html-keyboard-response,100,140833,null,"",null,,word,DISHONEST,,,,,,,,,,,,
html-keyboard-response,101,141039,null,"<div style=""font-size:42px;"">WEALTHY</div><img id = ""stim"" ><div class = green_square id = ""topsquare"" ></div>",null,practice2,word_square,,prac_response,1,Top,32,true,,,,,,,
html-keyboard-response,102,141353,202.39999997615814,"<div style=""font-size:42px;"">WEALTHY</div>",32,,word,WEALTHY,,,,,,,,,,,,
html-keyboard-response,103,142860,null,"",null,,word,WEALTHY,,,,,,,,,,,,
html-keyboard-response,104,143062,null,"<div style=""font-size:42px;"">BEAUTIFUL</div><img id = ""stim"" ><div class = red_square id = ""topsquare"" ></div>",null,practice2,word_square,,prac_response,0,Top,none,false,,,,,,,
html-keyboard-response,105,143379,null,"<div style=""font-size:42px;"">BEAUTIFUL</div>",null,,word,BEAUTIFUL,,,,,,,,,,,,
html-keyboard-response,106,144882,null,"",null,,word,BEAUTIFUL,,,,,,,,,,,,
html-keyboard-response,107,147908,3024.099999964237,"<p> Good job! You responded correctly to 100% of the trials. </p>
                    <p>Be sure to only press the spacebar if you see a GREEN square, and please keep your accuracy above 80%.</p>
                    <p>Press any key to begin the math and recall sections. Thank you! </p>",32,,,,,,,,,,,,,,,
call-function,108,147909,,"",,,,,,,,,,,,,,,,
html-keyboard-response,109,148017,null,"",null,,,,,,,,,,,,,,,
math-period,110,153991,10725.300000011921,"",,,,,,,,,,,2,,,,,
html-keyboard-response,111,154097,null,"",null,,,,,,,,,,,,,,,
math-period,112,158355,7032.500000059605,"",,,,,,,,,,,1,,,,,
html-keyboard-response,113,158462,null,"",null,,,,,,,,,,,,,,,
math-period,114,160440,3622.9999999403954,"",,,,,,,,,,,5,,,,,
html-keyboard-response,115,160544,null,"",null,,,,,,,,,,,,,,,
math-period,116,163069,4722.600000023842,"",,,,,,,,,,,2,,,,,
html-keyboard-response,117,163175,null,"",null,,,,,,,,,,,,,,,
math-period,118,165198,3764.599999964237,"",,,,,,,,,,,2,,,,,
html-keyboard-response,119,165301,null,"",null,,,,,,,,,,,,,,,
math-period,120,166875,2983.399999976158,"",,,,,,,,,,,4,,,,,
html-keyboard-response,121,166979,null,"",null,,,,,,,,,,,,,,,
math-period,122,169022,3971.5999999046326,"",,,,,,,,,,,5,,,,,
html-keyboard-response,123,169135,null,"",null,,,,,,,,,,,,,,,
math-period,124,170684,2966.399999976158,"",,,,,,,,,,,4,,,,,
html-keyboard-response,125,170789,null,"",null,,,,,,,,,,,,,,,
math-period,126,171915,null,"",,,,,,,,,,,,,,,,
html-keyboard-response,127,172921,null,"Recall Period!",null,,,,,,,,,,,,,,,
call-function,128,172921,,"",,,,,,,,,,,,,,,,
html-keyboard-response,129,173030,null,"",null,,,,,,,,,,,,,,,
recall-period,130,176786,16133.300000011921,"",,,,,,,,,,,cold,,,,,
html-keyboard-response,131,176895,null,"",null,,,,,,,,,,,,,,,
recall-period,132,178070,3246.400000035763,"",,,,,,,,,,,hot,,,,,
html-keyboard-response,133,178176,null,"",null,,,,,,,,,,,,,,,
recall-period,134,181902,16492.99999988079,"",,,,,,,,,,,period,,,,,
html-keyboard-response,135,182015,null,"",null,,,,,,,,,,,,,,,
recall-period,136,197817,90537.89999997616,"",,,,,,,,,,,spell,,,,,
html-keyboard-response,137,197924,null,"",null,,,,,,,,,,,,,,,
recall-period,138,209250,64762.000000178814,"",,,,,,,,,,,spell,,,,,
html-keyboard-response,139,209359,null,"",null,,,,,,,,,,,,,,,
recall-period,140,247932,null,"",,,,,,,,,,,,,,,,
html-keyboard-response,141,248435,null,"Time's Up!",null,,,,,,,,,,,,,,,
html-keyboard-response,142,253125,4688.800000011921,"<p>We will now begin the experiment!<p><p>Please try to remember all words from each list.<p><p>Press the spacebar whenever you see a GREEN square.<p><p><p><p>Press the spacebar to begin.</p>",32,,,,,,,,,,,,,,,
html-keyboard-response,143,256116,2479.100000023842,"<div style=""font-size:48px;"">Press any key to begin list 1 of 16 </div>",72,,,,,,,,,,,,,,,
html-keyboard-response,144,258625,null,"<div style=""font-size:60px;"">+</div>",null,,,,,,,,,,,,,,,
html-keyboard-response,145,258842,null,"<div style=""font-size:42px;"">ALMOND</div><img id = ""stim"" ><div class = green_square id = topsquare></div>",null,encoding,word_square,,,1,topsquare,32,true,,,ALMOND,0,,,
html-keyboard-response,146,259151,196.80000001192093,"<div style=""font-size:42px;"">ALMOND</div>",32,,word,ALMOND,,,,,,,,,,,,
html-keyboard-response,147,260660,null,"",null,,word,ALMOND,,,,,,,,,,,,
html-keyboard-response,148,260878,null,"<div style=""font-size:42px;"">RIFLE</div><img id = ""stim"" ><div class = red_square id = bottomsquare></div>",null,encoding,word_square,,,0,bottomsquare,none,true,,,RIFLE,0,,,
html-keyboard-response,149,261189,null,"<div style=""font-size:42px;"">RIFLE</div>",null,,word,RIFLE,,,,,,,,,,,,
html-keyboard-response,150,262706,null,"",null,,word,RIFLE,,,,,,,,,,,,
html-keyboard-response,151,262923,null,"<div style=""font-size:42px;"">JOKER</div><img id = ""stim"" ><div class = red_square id = topsquare></div>",null,encoding,word_square,,,0,topsquare,none,true,,,JOKER,0,,,
html-keyboard-response,152,263234,null,"<div style=""font-size:42px;"">JOKER</div>",null,,word,JOKER,,,,,,,,,,,,
html-keyboard-response,153,264751,null,"",null,,word,JOKER,,,,,,,,,,,,
html-keyboard-response,154,264955,null,"<div style=""font-size:42px;"">TUBA</div><img id = ""stim"" ><div class = green_square id = bottomsquare></div>",null,encoding,word_square,,,1,bottomsquare,32,true,,,TUBA,0,,,
html-keyboard-response,155,265268,129.9000000357628,"<div style=""font-size:42px;"">TUBA</div>",32,,word,TUBA,,,,,,,,,,,,
html-keyboard-response,156,266775,null,"",null,,word,TUBA,,,,,,,,,,,,
html-keyboard-response,157,266993,null,"<div style=""font-size:42px;"">RECORD</div><img id = ""stim"" ><div class = green_square id = topsquare></div>",null,encoding,word_square,,,1,topsquare,32,true,,,RECORD,0,,,
html-keyboard-response,158,267305,282.69999998807907,"<div style=""font-size:42px;"">RECORD</div>",32,,word,RECORD,,,,,,,,,,,,
html-keyboard-response,159,268819,null,"",null,,word,RECORD,,,,,,,,,,,,
html-keyboard-response,160,269023,null,"<div style=""font-size:42px;"">GRAVEL</div><img id = ""stim"" ><div class = red_square id = bottomsquare></div>",null,encoding,word_square,,,0,bottomsquare,none,true,,,GRAVEL,0,,,
html-keyboard-response,161,269337,null,"<div style=""font-size:42px;"">GRAVEL</div>",null,,word,GRAVEL,,,,,,,,,,,,
html-keyboard-response,162,270848,null,"",null,,word,GRAVEL,,,,,,,,,,,,
html-keyboard-response,163,271066,null,"<div style=""font-size:42px;"">BELT</div><img id = ""stim"" ><div class = green_square id = bottomsquare></div>",null,encoding,word_square,,,1,bottomsquare,32,true,,,BELT,0,,,
html-keyboard-response,164,271381,157.39999997615814,"<div style=""font-size:42px;"">BELT</div>",32,,word,BELT,,,,,,,,,,,,
html-keyboard-response,165,272894,null,"",null,,word,BELT,,,,,,,,,,,,
html-keyboard-response,166,273111,null,"<div style=""font-size:42px;"">MAGNET</div><img id = ""stim"" ><div class = red_square id = topsquare></div>",null,encoding,word_square,,,0,topsquare,none,true,,,MAGNET,0,,,
html-keyboard-response,167,273425,null,"<div style=""font-size:42px;"">MAGNET</div>",null,,word,MAGNET,,,,,,,,,,,,
html-keyboard-response,168,274929,null,"",null,,word,MAGNET,,,,,,,,,,,,
html-keyboard-response,169,275135,null,"<div style=""font-size:42px;"">EXPERT</div><img id = ""stim"" ><div class = green_square id = topsquare></div>",null,encoding,word_square,,,1,topsquare,32,true,,,EXPERT,0,,,
html-keyboard-response,170,275449,179.19999998807907,"<div style=""font-size:42px;"">EXPERT</div>",32,,word,EXPERT,,,,,,,,,,,,
html-keyboard-response,171,276964,null,"",null,,word,EXPERT,,,,,,,,,,,,
html-keyboard-response,172,277167,null,"<div style=""font-size:42px;"">TEACHER</div><img id = ""stim"" ><div class = green_square id = bottomsquare></div>",null,encoding,word_square,,,1,bottomsquare,32,true,,,TEACHER,0,,,
html-keyboard-response,173,277480,237.80000001192093,"<div style=""font-size:42px;"">TEACHER</div>",32,,word,TEACHER,,,,,,,,,,,,
html-keyboard-response,174,278984,null,"",null,,word,TEACHER,,,,,,,,,,,,
html-keyboard-response,175,279187,null,"<div style=""font-size:42px;"">INMATE</div><img id = ""stim"" ><div class = red_square id = bottomsquare></div>",null,encoding,word_square,,,0,bottomsquare,none,true,,,INMATE,0,,,
html-keyboard-response,176,279501,null,"<div style=""font-size:42px;"">INMATE</div>",null,,word,INMATE,,,,,,,,,,,,
html-keyboard-response,177,281003,null,"",null,,word,INMATE,,,,,,,,,,,,
html-keyboard-response,178,281206,null,"<div style=""font-size:42px;"">FRIES</div><img id = ""stim"" ><div class = red_square id = topsquare></div>",null,encoding,word_square,,,0,topsquare,none,true,,,FRIES,0,,,
html-keyboard-response,179,281520,null,"<div style=""font-size:42px;"">FRIES</div>",null,,word,FRIES,,,,,,,,,,,,
html-keyboard-response,180,283028,null,"",null,,word,FRIES,,,,,,,,,,,,
html-keyboard-response,181,283234,null,"<div style=""font-size:42px;"">CLOTHES</div><img id = ""stim"" ><div class = green_square id = topsquare></div>",null,encoding,word_square,,,1,topsquare,32,true,,,CLOTHES,0,,,
html-keyboard-response,182,283546,142.39999997615814,"<div style=""font-size:42px;"">CLOTHES</div>",32,,word,CLOTHES,,,,,,,,,,,,
html-keyboard-response,183,285053,null,"",null,,word,CLOTHES,,,,,,,,,,,,
html-keyboard-response,184,285256,null,"<div style=""font-size:42px;"">PISTOL</div><img id = ""stim"" ><div class = green_square id = bottomsquare></div>",null,encoding,word_square,,,1,bottomsquare,32,true,,,PISTOL,0,,,
html-keyboard-response,185,285570,194.39999997615814,"<div style=""font-size:42px;"">PISTOL</div>",32,,word,PISTOL,,,,,,,,,,,,
html-keyboard-response,186,287085,null,"",null,,word,PISTOL,,,,,,,,,,,,
html-keyboard-response,187,287302,null,"<div style=""font-size:42px;"">DIAMOND</div><img id = ""stim"" ><div class = red_square id = bottomsquare></div>",null,encoding,word_square,,,0,bottomsquare,none,true,,,DIAMOND,0,,,
html-keyboard-response,188,287614,null,"<div style=""font-size:42px;"">DIAMOND</div>",null,,word,DIAMOND,,,,,,,,,,,,
html-keyboard-response,189,289121,null,"",null,,word,DIAMOND,,,,,,,,,,,,
html-keyboard-response,190,289325,null,"<div style=""font-size:42px;"">AIRPORT</div><img id = ""stim"" ><div class = red_square id = topsquare></div>",null,encoding,word_square,,,0,topsquare,none,true,,,AIRPORT,0,,,
html-keyboard-response,191,289638,null,"<div style=""font-size:42px;"">AIRPORT</div>",null,,word,AIRPORT,,,,,,,,,,,,
html-keyboard-response,192,291140,null,"",null,,word,AIRPORT,,,,,,,,,,,,
call-function,193,291141,,"",,,,,,,,,,,,,,,,
html-keyboard-response,194,291243,null,"",null,,,,,,,,,,,,,,,
math-period,195,293842,4716.900000095367,"",,,,,,,,,,,5,,,,,
html-keyboard-response,196,293949,null,"",null,,,,,,,,,,,,,,,
math-period,197,296211,3702.399999976158,"",,,,,,,,,,,6,,,,,
html-keyboard-response,198,296314,null,"",null,,,,,,,,,,,,,,,
math-period,199,297780,2734.6999999284744,"",,,,,,,,,,,4,,,,,
html-keyboard-response,200,297882,null,"",null,,,,,,,,,,,,,,,
math-period,201,299863,3832.5000000596046,"",,,,,,,,,,,2,,,,,
html-keyboard-response,202,299979,null,"",null,,,,,,,,,,,,,,,
math-period,203,301337,2642.600000023842,"",,,,,,,,,,,3,,,,,
html-keyboard-response,204,301448,null,"",null,,,,,,,,,,,,,,,
math-period,205,303011,2936.400000035763,"",,,,,,,,,,,4,,,,,
html-keyboard-response,206,303114,null,"",null,,,,,,,,,,,,,,,
math-period,207,305310,4287.900000035763,"",,,,,,,,,,,0,,,,,
html-keyboard-response,208,305418,null,"",null,,,,,,,,,,,,,,,
math-period,209,307768,4543.299999952316,"",,,,,,,,,,,2,,,,,
html-keyboard-response,210,307882,null,"",null,,,,,,,,,,,,,,,
math-period,211,309252,2626.800000011921,"",,,,,,,,,,,6,,,,,
html-keyboard-response,212,309356,null,"",null,,,,,,,,,,,,,,,
math-period,213,310975,3137.7000000476837,"",,,,,,,,,,,1,,,,,
html-keyboard-response,214,311078,null,"",null,,,,,,,,,,,,,,,
math-period,215,312661,3085.600000023842,"",,,,,,,,,,,4,,,,,
html-keyboard-response,216,312767,null,"",null,,,,,,,,,,,,,,,
math-period,217,314150,2614.399999976158,"",,,,,,,,,,,2,,,,,
html-keyboard-response,218,314256,null,"",null,,,,,,,,,,,,,,,
math-period,219,315149,null,"",,,,,,,,,,,,,,,,
html-keyboard-response,220,316167,null,"Recall Period!",null,,,,,,,,,,,,,,,
call-function,221,316168,,"",,,,,,,,,,,,,,,,
html-keyboard-response,222,316277,null,"",null,,,,,,,,,,,,,,,
recall-period,223,331503,124364.30000007153,"",,,,,,,,,,,pigeon,,,,,
html-keyboard-response,224,331605,null,"",null,,,,,,,,,,,,,,,
recall-period,225,338420,63961.59999984503,"",,,,,,,,,,,chicken,,,,,
html-keyboard-response,226,338531,null,"",null,,,,,,,,,,,,,,,
recall-period,227,391169,null,"",,,,,,,,,,,,,,,,
html-keyboard-response,228,391671,null,"Time's Up!",null,,,,,,,,,,,,,,,
html-keyboard-response,229,395871,4197.199999988079,"<p> Good job! You have responded correctly to 100% of the trials. </p>
                      <p>Be sure to only press the spacebar if you see a GREEN square, and please keep your accuracy above 80%.</p>
                      <p> Press any key to continue the experiment. </p>",74,,,,,,,,,,,,,,,
html-keyboard-response,230,397870,1998.300000011921,"<div style=""font-size:48px;"">Press any key to begin list 2 of 16 </div>",72,,,,,,,,,,,,,,,
html-keyboard-response,231,400400,null,"<div style=""font-size:60px;"">+</div>",null,,,,,,,,,,,,,,,
html-keyboard-response,232,400619,null,"<div style=""font-size:42px;"">RAILROAD</div><img id = ""stim"" ><div class = red_square id = topsquare></div>",null,encoding,word_square,,,0,topsquare,none,false,,,RAILROAD,1,,,
html-keyboard-response,233,400934,null,"<div style=""font-size:42px;"">RAILROAD</div>",null,,word,RAILROAD,,,,,,,,,,,,
html-keyboard-response,234,402439,157.89999997615814,"",32,,word,RAILROAD,,,,,,,,,,,,
html-keyboard-response,235,402644,null,"<div style=""font-size:42px;"">TUTU</div><img id = ""stim"" ><div class = red_square id = bottomsquare></div>",null,encoding,word_square,,,0,bottomsquare,none,true,,,TUTU,1,,,
html-keyboard-response,236,402957,null,"<div style=""font-size:42px;"">TUTU</div>",null,,word,TUTU,,,,,,,,,,,,
html-keyboard-response,237,404473,null,"",null,,word,TUTU,,,,,,,,,,,,
html-keyboard-response,238,404691,null,"<div style=""font-size:42px;"">DRESS</div><img id = ""stim"" ><div class = green_square id = bottomsquare></div>",null,encoding,word_square,,,1,bottomsquare,32,true,,,DRESS,1,,,
html-keyboard-response,239,405005,151,"<div style=""font-size:42px;"">DRESS</div>",32,,word,DRESS,,,,,,,,,,,,
html-keyboard-response,240,406522,null,"",null,,word,DRESS,,,,,,,,,,,,
html-keyboard-response,241,406726,null,"<div style=""font-size:42px;"">PRIMATE</div><img id = ""stim"" ><div class = green_square id = topsquare></div>",null,encoding,word_square,,,1,topsquare,32,true,,,PRIMATE,1,,,
html-keyboard-response,242,407039,223.5999999642372,"<div style=""font-size:42px;"">PRIMATE</div>",32,,word,PRIMATE,,,,,,,,,,,,
html-keyboard-response,243,408549,null,"",null,,word,PRIMATE,,,,,,,,,,,,
html-keyboard-response,244,408767,null,"<div style=""font-size:42px;"">RACKET</div><img id = ""stim"" ><div class = red_square id = topsquare></div>",null,encoding,word_square,,,0,topsquare,none,true,,,RACKET,1,,,
html-keyboard-response,245,409079,null,"<div style=""font-size:42px;"">RACKET</div>",null,,word,RACKET,,,,,,,,,,,,
html-keyboard-response,246,410587,null,"",null,,word,RACKET,,,,,,,,,,,,
html-keyboard-response,247,410805,null,"<div style=""font-size:42px;"">STAIRS</div><img id = ""stim"" ><div class = red_square id = bottomsquare></div>",null,encoding,word_square,,,0,bottomsquare,none,true,,,STAIRS,1,,,
html-keyboard-response,248,411118,null,"<div style=""font-size:42px;"">STAIRS</div>",null,,word,STAIRS,,,,,,,,,,,,
html-keyboard-response,249,412621,null,"",null,,word,STAIRS,,,,,,,,,,,,
html-keyboard-response,250,412824,null,"<div style=""font-size:42px;"">MONEY</div><img id = ""stim"" ><div class = green_square id = bottomsquare></div>",null,encoding,word_square,,,1,bottomsquare,32,true,,,MONEY,1,,,
html-keyboard-response,251,413136,161.80000001192093,"<div style=""font-size:42px;"">MONEY</div>",32,,word,MONEY,,,,,,,,,,,,
html-keyboard-response,252,414649,null,"",null,,word,MONEY,,,,,,,,,,,,
html-keyboard-response,253,414866,null,"<div style=""font-size:42px;"">STALLION</div><img id = ""stim"" ><div class = green_square id = topsquare></div>",null,encoding,word_square,,,1,topsquare,32,true,,,STALLION,1,,,
html-keyboard-response,254,415181,142.5999999642372,"<div style=""font-size:42px;"">STALLION</div>",32,,word,STALLION,,,,,,,,,,,,
html-keyboard-response,255,416697,null,"",null,,word,STALLION,,,,,,,,,,,,
html-keyboard-response,256,416900,null,"<div style=""font-size:42px;"">MARROW</div><img id = ""stim"" ><div class = red_square id = topsquare></div>",null,encoding,word_square,,,0,topsquare,none,true,,,MARROW,1,,,
html-keyboard-response,257,417213,null,"<div style=""font-size:42px;"">MARROW</div>",null,,word,MARROW,,,,,,,,,,,,
html-keyboard-response,258,418728,null,"",null,,word,MARROW,,,,,,,,,,,,
html-keyboard-response,259,418931,null,"<div style=""font-size:42px;"">BACKBONE</div><img id = ""stim"" ><div class = green_square id = bottomsquare></div>",null,encoding,word_square,,,1,bottomsquare,32,true,,,BACKBONE,1,,,
html-keyboard-response,260,419243,198.80000001192093,"<div style=""font-size:42px;"">BACKBONE</div>",32,,word,BACKBONE,,,,,,,,,,,,
html-keyboard-response,261,420760,null,"",null,,word,BACKBONE,,,,,,,,,,,,
html-keyboard-response,262,420963,null,"<div style=""font-size:42px;"">POND</div><img id = ""stim"" ><div class = red_square id = bottomsquare></div>",null,encoding,word_square,,,0,bottomsquare,none,true,,,POND,1,,,
html-keyboard-response,263,421278,null,"<div style=""font-size:42px;"">POND</div>",null,,word,POND,,,,,,,,,,,,
html-keyboard-response,264,422793,null,"",null,,word,POND,,,,,,,,,,,,
html-keyboard-response,265,422998,null,"<div style=""font-size:42px;"">JUGGLER</div><img id = ""stim"" ><div class = green_square id = topsquare></div>",null,encoding,word_square,,,1,topsquare,32,true,,,JUGGLER,1,,,
html-keyboard-response,266,423309,117.5,"<div style=""font-size:42px;"">JUGGLER</div>",32,,word,JUGGLER,,,,,,,,,,,,
html-keyboard-response,267,424815,null,"",null,,word,JUGGLER,,,,,,,,,,,,
html-keyboard-response,268,425017,null,"<div style=""font-size:42px;"">GYMNAST</div><img id = ""stim"" ><div class = green_square id = bottomsquare></div>",null,encoding,word_square,,,1,bottomsquare,32,true,,,GYMNAST,1,,,
html-keyboard-response,269,425330,null,"<div style=""font-size:42px;"">GYMNAST</div>",null,,word,GYMNAST,,,,,,,,,,,,
html-keyboard-response,270,426840,41.69999998807907,"",32,,word,GYMNAST,,,,,,,,,,,,
html-keyboard-response,271,427046,null,"<div style=""font-size:42px;"">COMET</div><img id = ""stim"" ><div class = red_square id = topsquare></div>",null,encoding,word_square,,,0,topsquare,none,true,,,COMET,1,,,
html-keyboard-response,272,427362,null,"<div style=""font-size:42px;"">COMET</div>",null,,word,COMET,,,,,,,,,,,,
html-keyboard-response,273,428865,null,"",null,,word,COMET,,,,,,,,,,,,
html-keyboard-response,274,429071,null,"<div style=""font-size:42px;"">GIRL</div><img id = ""stim"" ><div class = red_square id = bottomsquare></div>",null,encoding,word_square,,,0,bottomsquare,none,true,,,GIRL,1,,,
html-keyboard-response,275,429383,null,"<div style=""font-size:42px;"">GIRL</div>",null,,word,GIRL,,,,,,,,,,,,
html-keyboard-response,276,430897,null,"",null,,word,GIRL,,,,,,,,,,,,
html-keyboard-response,277,431115,null,"<div style=""font-size:42px;"">MAPLE</div><img id = ""stim"" ><div class = green_square id = topsquare></div>",null,encoding,word_square,,,1,topsquare,32,true,,,MAPLE,1,,,
html-keyboard-response,278,431428,134.60000002384186,"<div style=""font-size:42px;"">MAPLE</div>",32,,word,MAPLE,,,,,,,,,,,,
html-keyboard-response,279,432937,null,"",null,,word,MAPLE,,,,,,,,,,,,
call-function,280,432938,,"",,,,,,,,,,,,,,,,
html-keyboard-response,281,433046,null,"",null,,,,,,,,,,,,,,,
math-period,282,436801,6222.200000047684,"",,,,,,,,,,,5,,,,,
html-keyboard-response,283,436915,null,"",null,,,,,,,,,,,,,,,
math-period,284,438952,3903.5,"",,,,,,,,,,,2,,,,,
html-keyboard-response,285,439069,null,"",null,,,,,,,,,,,,,,,
math-period,286,440902,3578.199999988079,"",,,,,,,,,,,5,,,,,
html-keyboard-response,287,441018,null,"",null,,,,,,,,,,,,,,,
math-period,288,442575,2957.100000023842,"",,,,,,,,,,,2,,,,,
html-keyboard-response,289,442691,null,"",null,,,,,,,,,,,,,,,
math-period,290,444351,3125.7999999523163,"",,,,,,,,,,,1,,,,,
html-keyboard-response,291,444453,null,"",null,,,,,,,,,,,,,,,
math-period,292,445947,2860.400000035763,"",,,,,,,,,,,3,,,,,
html-keyboard-response,293,446054,null,"",null,,,,,,,,,,,,,,,
math-period,294,447662,3088.599999964237,"",,,,,,,,,,,4,,,,,
html-keyboard-response,295,447767,null,"",null,,,,,,,,,,,,,,,
math-period,296,449251,2773.599999964237,"",,,,,,,,,,,5,,,,,
html-keyboard-response,297,449354,null,"",null,,,,,,,,,,,,,,,
math-period,298,451595,4364.799999952316,"",,,,,,,,,,,1,,,,,
html-keyboard-response,299,451700,null,"",null,,,,,,,,,,,,,,,
math-period,300,454089,4565.400000035763,"",,,,,,,,,,,4,,,,,
html-keyboard-response,301,454196,null,"",null,,,,,,,,,,,,,,,
math-period,302,455542,2541.699999988079,"",,,,,,,,,,,6,,,,,
html-keyboard-response,303,455647,null,"",null,,,,,,,,,,,,,,,
math-period,304,456945,null,"",,,,,,,,,,,,,,,,
html-keyboard-response,305,457957,null,"Recall Period!",null,,,,,,,,,,,,,,,
call-function,306,457958,,"",,,,,,,,,,,,,,,,
html-keyboard-response,307,458067,null,"",null,,,,,,,,,,,,,,,
recall-period,308,459516,4758,"",,,,,,,,,,,pond,,,,,
html-keyboard-response,309,459633,null,"",null,,,,,,,,,,,,,,,
recall-period,310,461895,7369.399999797344,"",,,,,,,,,,,juggler,,,,,
html-keyboard-response,311,462006,null,"",null,,,,,,,,,,,,,,,
recall-period,312,464063,10508.200000166893,"",,,,,,,,,,,gymnast,,,,,
html-keyboard-response,313,464173,null,"",null,,,,,,,,,,,,,,,
recall-period,314,469231,19139.10000014305,"",,,,,,,,,,,ice,,,,,
html-keyboard-response,315,469337,null,"",null,,,,,,,,,,,,,,,
recall-period,316,470397,3528.2000000476837,"",,,,,,,,,,,wood,,,,,
html-keyboard-response,317,470507,null,"",null,,,,,,,,,,,,,,,
recall-period,318,532963,null,"",,,,,,,,,,,,,,,,
html-keyboard-response,319,533467,null,"Time's Up!",null,,,,,,,,,,,,,,,
html-keyboard-response,320,536247,2777.5,"<p> Good job! You have responded correctly to 97% of the trials. </p>
                      <p>Be sure to only press the spacebar if you see a GREEN square, and please keep your accuracy above 80%.</p>
                      <p> Press any key to continue the experiment. </p>",74,,,,,,,,,,,,,,,
html-keyboard-response,321,540351,4102.5,"<div style=""font-size:48px;"">Press any key to begin list 3 of 16 </div>",72,,,,,,,,,,,,,,,
html-keyboard-response,322,542860,null,"<div style=""font-size:60px;"">+</div>",null,,,,,,,,,,,,,,,
html-keyboard-response,323,543066,null,"<div style=""font-size:42px;"">LAVA</div><img id = ""stim"" ><div class = red_square id = bottomsquare></div>",null,encoding,word_square,,,0,bottomsquare,none,true,,,LAVA,2,,,
html-keyboard-response,324,543383,null,"<div style=""font-size:42px;"">LAVA</div>",null,,word,LAVA,,,,,,,,,,,,
html-keyboard-response,325,544891,null,"",null,,word,LAVA,,,,,,,,,,,,
html-keyboard-response,326,545108,null,"<div style=""font-size:42px;"">HOUND</div><img id = ""stim"" ><div class = green_square id = topsquare></div>",null,encoding,word_square,,,1,topsquare,32,true,,,HOUND,2,,,
html-keyboard-response,327,545423,null,"<div style=""font-size:42px;"">HOUND</div>",null,,word,HOUND,,,,,,,,,,,,
html-keyboard-response,328,546934,82.69999998807907,"",32,,word,HOUND,,,,,,,,,,,,
html-keyboard-response,329,547152,null,"<div style=""font-size:42px;"">FOSSIL</div><img id = ""stim"" ><div class = green_square id = bottomsquare></div>",null,encoding,word_square,,,1,bottomsquare,32,true,,,FOSSIL,2,,,
html-keyboard-response,330,547465,null,"<div style=""font-size:42px;"">FOSSIL</div>",null,,word,FOSSIL,,,,,,,,,,,,
html-keyboard-response,331,548982,93.39999997615814,"",32,,word,FOSSIL,,,,,,,,,,,,
html-keyboard-response,332,549199,null,"<div style=""font-size:42px;"">DUSTPAN</div><img id = ""stim"" ><div class = red_square id = topsquare></div>",null,encoding,word_square,,,0,topsquare,none,true,,,DUSTPAN,2,,,
html-keyboard-response,333,549510,null,"<div style=""font-size:42px;"">DUSTPAN</div>",null,,word,DUSTPAN,,,,,,,,,,,,
html-keyboard-response,334,551014,null,"",null,,word,DUSTPAN,,,,,,,,,,,,
html-keyboard-response,335,551220,null,"<div style=""font-size:42px;"">RAISIN</div><img id = ""stim"" ><div class = red_square id = bottomsquare></div>",null,encoding,word_square,,,0,bottomsquare,none,true,,,RAISIN,2,,,
html-keyboard-response,336,551533,null,"<div style=""font-size:42px;"">RAISIN</div>",null,,word,RAISIN,,,,,,,,,,,,
html-keyboard-response,337,553038,null,"",null,,word,RAISIN,,,,,,,,,,,,
html-keyboard-response,338,553243,null,"<div style=""font-size:42px;"">PLIERS</div><img id = ""stim"" ><div class = green_square id = topsquare></div>",null,encoding,word_square,,,1,topsquare,32,true,,,PLIERS,2,,,
html-keyboard-response,339,553554,193.10000002384186,"<div style=""font-size:42px;"">PLIERS</div>",32,,word,PLIERS,,,,,,,,,,,,
html-keyboard-response,340,555069,null,"",null,,word,PLIERS,,,,,,,,,,,,
html-keyboard-response,341,555273,null,"<div style=""font-size:42px;"">CHAUFFEUR</div><img id = ""stim"" ><div class = red_square id = topsquare></div>",null,encoding,word_square,,,0,topsquare,none,true,,,CHAUFFEUR,2,,,
html-keyboard-response,342,555585,null,"<div style=""font-size:42px;"">CHAUFFEUR</div>",null,,word,CHAUFFEUR,,,,,,,,,,,,
html-keyboard-response,343,557087,null,"",null,,word,CHAUFFEUR,,,,,,,,,,,,
html-keyboard-response,344,557292,null,"<div style=""font-size:42px;"">GIFT</div><img id = ""stim"" ><div class = green_square id = bottomsquare></div>",null,encoding,word_square,,,1,bottomsquare,32,true,,,GIFT,2,,,
html-keyboard-response,345,557606,180.5,"<div style=""font-size:42px;"">GIFT</div>",32,,word,GIFT,,,,,,,,,,,,
html-keyboard-response,346,559123,null,"",null,,word,GIFT,,,,,,,,,,,,
html-keyboard-response,347,559326,null,"<div style=""font-size:42px;"">FRAME</div><img id = ""stim"" ><div class = red_square id = bottomsquare></div>",null,encoding,word_square,,,0,bottomsquare,none,true,,,FRAME,2,,,
html-keyboard-response,348,559636,null,"<div style=""font-size:42px;"">FRAME</div>",null,,word,FRAME,,,,,,,,,,,,
html-keyboard-response,349,561139,null,"",null,,word,FRAME,,,,,,,,,,,,
html-keyboard-response,350,561358,null,"<div style=""font-size:42px;"">SOFTBALL</div><img id = ""stim"" ><div class = red_square id = topsquare></div>",null,encoding,word_square,,,0,topsquare,none,true,,,SOFTBALL,2,,,
html-keyboard-response,351,561667,null,"<div style=""font-size:42px;"">SOFTBALL</div>",null,,word,SOFTBALL,,,,,,,,,,,,
html-keyboard-response,352,563170,null,"",null,,word,SOFTBALL,,,,,,,,,,,,
html-keyboard-response,353,563375,null,"<div style=""font-size:42px;"">LACE</div><img id = ""stim"" ><div class = green_square id = topsquare></div>",null,encoding,word_square,,,1,topsquare,32,true,,,LACE,2,,,
html-keyboard-response,354,563690,173,"<div style=""font-size:42px;"">LACE</div>",32,,word,LACE,,,,,,,,,,,,
html-keyboard-response,355,565201,null,"",null,,word,LACE,,,,,,,,,,,,
html-keyboard-response,356,565405,null,"<div style=""font-size:42px;"">SNORKEL</div><img id = ""stim"" ><div class = green_square id = bottomsquare></div>",null,encoding,word_square,,,1,bottomsquare,32,true,,,SNORKEL,2,,,
html-keyboard-response,357,565719,null,"<div style=""font-size:42px;"">SNORKEL</div>",null,,word,SNORKEL,,,,,,,,,,,,
html-keyboard-response,358,567232,187.89999997615814,"",32,,word,SNORKEL,,,,,,,,,,,,
html-keyboard-response,359,567450,null,"<div style=""font-size:42px;"">CRICKET</div><img id = ""stim"" ><div class = red_square id = bottomsquare></div>",null,encoding,word_square,,,0,bottomsquare,none,true,,,CRICKET,2,,,
html-keyboard-response,360,567765,null,"<div style=""font-size:42px;"">CRICKET</div>",null,,word,CRICKET,,,,,,,,,,,,
html-keyboard-response,361,569279,null,"",null,,word,CRICKET,,,,,,,,,,,,
html-keyboard-response,362,569483,null,"<div style=""font-size:42px;"">HEART</div><img id = ""stim"" ><div class = red_square id = topsquare></div>",null,encoding,word_square,,,0,topsquare,none,true,,,HEART,2,,,
html-keyboard-response,363,569795,null,"<div style=""font-size:42px;"">HEART</div>",null,,word,HEART,,,,,,,,,,,,
html-keyboard-response,364,571310,null,"",null,,word,HEART,,,,,,,,,,,,
html-keyboard-response,365,571514,null,"<div style=""font-size:42px;"">DONOR</div><img id = ""stim"" ><div class = green_square id = topsquare></div>",null,encoding,word_square,,,1,topsquare,32,true,,,DONOR,2,,,
html-keyboard-response,366,571826,187.5,"<div style=""font-size:42px;"">DONOR</div>",32,,word,DONOR,,,,,,,,,,,,
html-keyboard-response,367,573341,null,"",null,,word,DONOR,,,,,,,,,,,,
html-keyboard-response,368,573545,null,"<div style=""font-size:42px;"">PORTRAIT</div><img id = ""stim"" ><div class = green_square id = bottomsquare></div>",null,encoding,word_square,,,1,bottomsquare,32,true,,,PORTRAIT,2,,,
html-keyboard-response,369,573857,169,"<div style=""font-size:42px;"">PORTRAIT</div>",32,,word,PORTRAIT,,,,,,,,,,,,
html-keyboard-response,370,575359,null,"",null,,word,PORTRAIT,,,,,,,,,,,,
call-function,371,575360,,"",,,,,,,,,,,,,,,,
html-keyboard-response,372,575467,null,"",null,,,,,,,,,,,,,,,
math-period,373,578952,6530.900000035763,"",,,,,,,,,,,0,,,,,
html-keyboard-response,374,579054,null,"",null,,,,,,,,,,,,,,,
math-period,375,580909,3565.899999976158,"",,,,,,,,,,,1,,,,,
html-keyboard-response,376,581025,null,"",null,,,,,,,,,,,,,,,
math-period,377,582650,3135.9999999403954,"",,,,,,,,,,,5,,,,,
html-keyboard-response,378,582755,null,"",null,,,,,,,,,,,,,,,
math-period,379,584177,2730.9999999403954,"",,,,,,,,,,,4,,,,,
html-keyboard-response,380,584280,null,"",null,,,,,,,,,,,,,,,
math-period,381,585944,3235.599999964237,"",,,,,,,,,,,1,,,,,
html-keyboard-response,382,586051,null,"",null,,,,,,,,,,,,,,,
math-period,383,587431,2679.300000011921,"",,,,,,,,,,,1,,,,,
html-keyboard-response,384,587549,null,"",null,,,,,,,,,,,,,,,
math-period,385,588766,2340.099999964237,"",,,,,,,,,,,5,,,,,
html-keyboard-response,386,588868,null,"",null,,,,,,,,,,,,,,,
math-period,387,590689,3531.900000035763,"",,,,,,,,,,,5,,,,,
html-keyboard-response,388,590795,null,"",null,,,,,,,,,,,,,,,
math-period,389,592453,3217.699999988079,"",,,,,,,,,,,1,,,,,
html-keyboard-response,390,592557,null,"",null,,,,,,,,,,,,,,,
math-period,391,593619,2034.0999999642372,"",,,,,,,,,,,2,,,,,
html-keyboard-response,392,593734,null,"",null,,,,,,,,,,,,,,,
math-period,393,594961,2357.400000035763,"",,,,,,,,,,,4,,,,,
html-keyboard-response,394,595066,null,"",null,,,,,,,,,,,,,,,
math-period,395,596919,3609.399999976158,"",,,,,,,,,,,2,,,,,
html-keyboard-response,396,597029,null,"",null,,,,,,,,,,,,,,,
math-period,397,598409,2647.699999988079,"",,,,,,,,,,,1,,,,,
html-keyboard-response,398,598514,null,"",null,,,,,,,,,,,,,,,
math-period,399,599363,null,"",,,,,,,,,,,,,,,,
html-keyboard-response,400,600366,null,"Recall Period!",null,,,,,,,,,,,,,,,
call-function,401,600368,,"",,,,,,,,,,,,,,,,
html-keyboard-response,402,600475,null,"",null,,,,,,,,,,,,,,,
recall-period,403,601607,1129.8999999761581,"",,,,,,,,,,,,,,,,
html-keyboard-response,404,601711,null,"",null,,,,,,,,,,,,,,,
recall-period,405,604999,23422.69999986887,"",,,,,,,,,,,portrait,,,,,
html-keyboard-response,406,605114,null,"",null,,,,,,,,,,,,,,,
recall-period,407,605927,1684.199999988079,"",,,,,,,,,,,sun,,,,,
html-keyboard-response,408,606032,null,"",null,,,,,,,,,,,,,,,
recall-period,409,608195,6908.900000095367,"",,,,,,,,,,,dial,,,,,
html-keyboard-response,410,608307,null,"",null,,,,,,,,,,,,,,,
recall-period,411,621641,57598.59999996424,"",,,,,,,,,,,juggle,,,,,
html-keyboard-response,412,621745,null,"",null,,,,,,,,,,,,,,,
recall-period,413,658117,285602.90000003576,"",,,,,,,,,,,snorkel,,,,,
html-keyboard-response,414,658226,null,"",null,,,,,,,,,,,,,,,
recall-period,415,659404,3799.69999986887,"",,,,,,,,,,,wolf,,,,,
html-keyboard-response,416,659511,null,"",null,,,,,,,,,,,,,,,
recall-period,417,675377,null,"",,,,,,,,,,,,,,,,
html-keyboard-response,418,675881,null,"Time's Up!",null,,,,,,,,,,,,,,,
html-keyboard-response,419,678355,2472.5,"<p> Good job! You have responded correctly to 98% of the trials. </p>
                      <p>Be sure to only press the spacebar if you see a GREEN square, and please keep your accuracy above 80%.</p>
                      <p> Press any key to continue the experiment. </p>",75,,,,,,,,,,,,,,,
html-keyboard-response,420,679453,1095.5,"<div style=""font-size:48px;"">Press any key to begin list 4 of 16 </div>",72,,,,,,,,,,,,,,,
html-keyboard-response,421,681967,null,"<div style=""font-size:60px;"">+</div>",null,,,,,,,,,,,,,,,
html-keyboard-response,422,682172,null,"<div style=""font-size:42px;"">NICKEL</div><img id = ""stim"" ><div class = green_square id = bottomsquare></div>",null,encoding,word_square,,,1,bottomsquare,32,true,,,NICKEL,3,,,
html-keyboard-response,423,682485,228.0999999642372,"<div style=""font-size:42px;"">NICKEL</div>",32,,word,NICKEL,,,,,,,,,,,,
html-keyboard-response,424,683996,null,"",null,,word,NICKEL,,,,,,,,,,,,
html-keyboard-response,425,684202,null,"<div style=""font-size:42px;"">FLEET</div><img id = ""stim"" ><div class = green_square id = topsquare></div>",null,encoding,word_square,,,1,topsquare,32,true,,,FLEET,3,,,
html-keyboard-response,426,684512,261.60000002384186,"<div style=""font-size:42px;"">FLEET</div>",32,,word,FLEET,,,,,,,,,,,,
html-keyboard-response,427,686018,null,"",null,,word,FLEET,,,,,,,,,,,,
html-keyboard-response,428,686235,null,"<div style=""font-size:42px;"">CASTLE</div><img id = ""stim"" ><div class = red_square id = topsquare></div>",null,encoding,word_square,,,0,topsquare,none,true,,,CASTLE,3,,,
html-keyboard-response,429,686547,null,"<div style=""font-size:42px;"">CASTLE</div>",null,,word,CASTLE,,,,,,,,,,,,
html-keyboard-response,430,688064,null,"",null,,word,CASTLE,,,,,,,,,,,,
html-keyboard-response,431,688268,null,"<div style=""font-size:42px;"">GAZELLE</div><img id = ""stim"" ><div class = red_square id = bottomsquare></div>",null,encoding,word_square,,,0,bottomsquare,none,true,,,GAZELLE,3,,,
html-keyboard-response,432,688579,null,"<div style=""font-size:42px;"">GAZELLE</div>",null,,word,GAZELLE,,,,,,,,,,,,
html-keyboard-response,433,690085,null,"",null,,word,GAZELLE,,,,,,,,,,,,
html-keyboard-response,434,690302,null,"<div style=""font-size:42px;"">HONEY</div><img id = ""stim"" ><div class = green_square id = bottomsquare></div>",null,encoding,word_square,,,1,bottomsquare,32,true,,,HONEY,3,,,
html-keyboard-response,435,690612,204.19999998807907,"<div style=""font-size:42px;"">HONEY</div>",32,,word,HONEY,,,,,,,,,,,,
html-keyboard-response,436,692121,null,"",null,,word,HONEY,,,,,,,,,,,,
html-keyboard-response,437,692338,null,"<div style=""font-size:42px;"">WAX</div><img id = ""stim"" ><div class = green_square id = topsquare></div>",null,encoding,word_square,,,1,topsquare,32,true,,,WAX,3,,,
html-keyboard-response,438,692650,139.80000001192093,"<div style=""font-size:42px;"">WAX</div>",32,,word,WAX,,,,,,,,,,,,
html-keyboard-response,439,694155,null,"",null,,word,WAX,,,,,,,,,,,,
html-keyboard-response,440,694359,null,"<div style=""font-size:42px;"">DAUGHTER</div><img id = ""stim"" ><div class = red_square id = topsquare></div>",null,encoding,word_square,,,0,topsquare,none,true,,,DAUGHTER,3,,,
html-keyboard-response,441,694672,null,"<div style=""font-size:42px;"">DAUGHTER</div>",null,,word,DAUGHTER,,,,,,,,,,,,
html-keyboard-response,442,696179,null,"",null,,word,DAUGHTER,,,,,,,,,,,,
html-keyboard-response,443,696384,null,"<div style=""font-size:42px;"">CREATURE</div><img id = ""stim"" ><div class = red_square id = bottomsquare></div>",null,encoding,word_square,,,0,bottomsquare,none,true,,,CREATURE,3,,,
html-keyboard-response,444,696700,null,"<div style=""font-size:42px;"">CREATURE</div>",null,,word,CREATURE,,,,,,,,,,,,
html-keyboard-response,445,698211,null,"",null,,word,CREATURE,,,,,,,,,,,,
html-keyboard-response,446,698414,null,"<div style=""font-size:42px;"">ELK</div><img id = ""stim"" ><div class = green_square id = bottomsquare></div>",null,encoding,word_square,,,1,bottomsquare,32,true,,,ELK,3,,,
html-keyboard-response,447,698726,201,"<div style=""font-size:42px;"">ELK</div>",32,,word,ELK,,,,,,,,,,,,
html-keyboard-response,448,700234,null,"",null,,word,ELK,,,,,,,,,,,,
html-keyboard-response,449,700453,null,"<div style=""font-size:42px;"">SLACKS</div><img id = ""stim"" ><div class = red_square id = topsquare></div>",null,encoding,word_square,,,0,topsquare,none,true,,,SLACKS,3,,,
html-keyboard-response,450,700768,null,"<div style=""font-size:42px;"">SLACKS</div>",null,,word,SLACKS,,,,,,,,,,,,
html-keyboard-response,451,702283,null,"",null,,word,SLACKS,,,,,,,,,,,,
html-keyboard-response,452,702487,null,"<div style=""font-size:42px;"">WORKER</div><img id = ""stim"" ><div class = green_square id = topsquare></div>",null,encoding,word_square,,,1,topsquare,32,true,,,WORKER,3,,,
html-keyboard-response,453,702801,163.89999997615814,"<div style=""font-size:42px;"">WORKER</div>",32,,word,WORKER,,,,,,,,,,,,
html-keyboard-response,454,704304,null,"",null,,word,WORKER,,,,,,,,,,,,
html-keyboard-response,455,704522,null,"<div style=""font-size:42px;"">BRIDE</div><img id = ""stim"" ><div class = red_square id = bottomsquare></div>",null,encoding,word_square,,,0,bottomsquare,none,true,,,BRIDE,3,,,
html-keyboard-response,456,704836,null,"<div style=""font-size:42px;"">BRIDE</div>",null,,word,BRIDE,,,,,,,,,,,,
html-keyboard-response,457,706341,null,"",null,,word,BRIDE,,,,,,,,,,,,
html-keyboard-response,458,706546,null,"<div style=""font-size:42px;"">BANK</div><img id = ""stim"" ><div class = red_square id = topsquare></div>",null,encoding,word_square,,,0,topsquare,none,true,,,BANK,3,,,
html-keyboard-response,459,706857,null,"<div style=""font-size:42px;"">BANK</div>",null,,word,BANK,,,,,,,,,,,,
html-keyboard-response,460,708363,null,"",null,,word,BANK,,,,,,,,,,,,
html-keyboard-response,461,708566,null,"<div style=""font-size:42px;"">ATLAS</div><img id = ""stim"" ><div class = green_square id = bottomsquare></div>",null,encoding,word_square,,,1,bottomsquare,32,true,,,ATLAS,3,,,
html-keyboard-response,462,708879,173,"<div style=""font-size:42px;"">ATLAS</div>",32,,word,ATLAS,,,,,,,,,,,,
html-keyboard-response,463,710384,null,"",null,,word,ATLAS,,,,,,,,,,,,
html-keyboard-response,464,710587,null,"<div style=""font-size:42px;"">WORLD</div><img id = ""stim"" ><div class = green_square id = topsquare></div>",null,encoding,word_square,,,1,topsquare,32,true,,,WORLD,3,,,
html-keyboard-response,465,710900,199.19999998807907,"<div style=""font-size:42px;"">WORLD</div>",32,,word,WORLD,,,,,,,,,,,,
html-keyboard-response,466,712413,null,"",null,,word,WORLD,,,,,,,,,,,,
html-keyboard-response,467,712618,null,"<div style=""font-size:42px;"">LAPEL</div><img id = ""stim"" ><div class = red_square id = bottomsquare></div>",null,encoding,word_square,,,0,bottomsquare,none,true,,,LAPEL,3,,,
html-keyboard-response,468,712933,null,"<div style=""font-size:42px;"">LAPEL</div>",null,,word,LAPEL,,,,,,,,,,,,
html-keyboard-response,469,714449,null,"",null,,word,LAPEL,,,,,,,,,,,,
call-function,470,714450,,"",,,,,,,,,,,,,,,,
html-keyboard-response,471,714559,null,"",null,,,,,,,,,,,,,,,
math-period,472,717089,6305,"",,,,,,,,,,, 4,,,,,
html-keyboard-response,473,717207,null,"",null,,,,,,,,,,,,,,,
math-period,474,718506,2431.699999988079,"",,,,,,,,,,,6,,,,,
html-keyboard-response,475,718616,null,"",null,,,,,,,,,,,,,,,
math-period,476,721431,5520,"",,,,,,,,,,,5,,,,,
html-keyboard-response,477,721533,null,"",null,,,,,,,,,,,,,,,
math-period,478,723188,3183.4999999403954,"",,,,,,,,,,,5,,,,,
html-keyboard-response,479,723297,null,"",null,,,,,,,,,,,,,,,
math-period,480,724937,3198.300000011921,"",,,,,,,,,,,1,,,,,
html-keyboard-response,481,725039,null,"",null,,,,,,,,,,,,,,,
math-period,482,726290,2381.199999988079,"",,,,,,,,,,,5,,,,,
html-keyboard-response,483,726402,null,"",null,,,,,,,,,,,,,,,
math-period,484,728737,4493.699999928474,"",,,,,,,,,,,0,,,,,
html-keyboard-response,485,728851,null,"",null,,,,,,,,,,,,,,,
math-period,486,731198,4553.800000011921,"",,,,,,,,,,,4,,,,,
html-keyboard-response,487,731302,null,"",null,,,,,,,,,,,,,,,
math-period,488,732451,2165.699999988079,"",,,,,,,,,,,3,,,,,
html-keyboard-response,489,732557,null,"",null,,,,,,,,,,,,,,,
math-period,490,734141,3018.8000000715256,"",,,,,,,,,,,2,,,,,
html-keyboard-response,491,734254,null,"",null,,,,,,,,,,,,,,,
math-period,492,735792,2937,"",,,,,,,,,,,1,,,,,
html-keyboard-response,493,735897,null,"",null,,,,,,,,,,,,,,,
math-period,494,737040,2206.5,"",,,,,,,,,,,5,,,,,
html-keyboard-response,495,737143,null,"",null,,,,,,,,,,,,,,,
math-period,496,738454,null,"",,,,,,,,,,,,,,,,
html-keyboard-response,497,739470,null,"Recall Period!",null,,,,,,,,,,,,,,,
call-function,498,739471,,"",,,,,,,,,,,,,,,,
html-keyboard-response,499,739581,null,"",null,,,,,,,,,,,,,,,
recall-period,500,741961,13729.200000107288,"",,,,,,,,,,,remote,,,,,
html-keyboard-response,501,742066,null,"",null,,,,,,,,,,,,,,,
recall-period,502,744058,6941.800000011921,"",,,,,,,,,,,ice,,,,,
html-keyboard-response,503,744166,null,"",null,,,,,,,,,,,,,,,
recall-period,504,763015,91147.60000008345,"",,,,,,,,,,,ie,,,,,
html-keyboard-response,505,763129,null,"",null,,,,,,,,,,,,,,,
recall-period,506,766083,10520.300000071526,"",,,,,,,,,,,fog,,,,,
html-keyboard-response,507,766186,null,"",null,,,,,,,,,,,,,,,
recall-period,508,786106,97999.89999985695,"",,,,,,,,,,,shoe,,,,,
html-keyboard-response,509,786220,null,"",null,,,,,,,,,,,,,,,
recall-period,510,788292,10243.799999892712,"",,,,,,,,,,,nickel,,,,,
html-keyboard-response,511,788407,null,"",null,,,,,,,,,,,,,,,
recall-period,512,789364,3181.9999998807907,"",,,,,,,,,,,fleet,,,,,
html-keyboard-response,513,789470,null,"",null,,,,,,,,,,,,,,,
recall-period,514,790505,3977.200000166893,"",,,,,,,,,,,almond,,,,,
html-keyboard-response,515,790611,null,"",null,,,,,,,,,,,,,,,
recall-period,516,814472,null,"",,,,,,,,,,,,,,,,
html-keyboard-response,517,814990,null,"Time's Up!",null,,,,,,,,,,,,,,,
html-keyboard-response,518,816801,1809.8999999761581,"<p> Good job! You have responded correctly to 98% of the trials. </p>
                      <p>Be sure to only press the spacebar if you see a GREEN square, and please keep your accuracy above 80%.</p>
                      <p> Press any key to continue the experiment. </p>",32,,,,,,,,,,,,,,,
html-keyboard-response,519,818129,1326.3999999761581,"<div style=""font-size:48px;"">Press any key to begin list 5 of 16 </div>",32,,,,,,,,,,,,,,,
html-keyboard-response,520,820652,null,"<div style=""font-size:60px;"">+</div>",null,,,,,,,,,,,,,,,
html-keyboard-response,521,820857,null,"<div style=""font-size:42px;"">BALLOON</div><img id = ""stim"" ><div class = green_square id = topsquare></div>",null,encoding,word_square,,,1,topsquare,32,true,,,BALLOON,4,,,
html-keyboard-response,522,821170,196.39999997615814,"<div style=""font-size:42px;"">BALLOON</div>",32,,word,BALLOON,,,,,,,,,,,,
html-keyboard-response,523,822685,null,"",null,,word,BALLOON,,,,,,,,,,,,
html-keyboard-response,524,822888,null,"<div style=""font-size:42px;"">MARKET</div><img id = ""stim"" ><div class = green_square id = bottomsquare></div>",null,encoding,word_square,,,1,bottomsquare,32,true,,,MARKET,4,,,
html-keyboard-response,525,823193,196.89999997615814,"<div style=""font-size:42px;"">MARKET</div>",32,,word,MARKET,,,,,,,,,,,,
html-keyboard-response,526,824708,null,"",null,,word,MARKET,,,,,,,,,,,,
html-keyboard-response,527,824911,null,"<div style=""font-size:42px;"">SCALPEL</div><img id = ""stim"" ><div class = red_square id = bottomsquare></div>",null,encoding,word_square,,,0,bottomsquare,none,true,,,SCALPEL,4,,,
html-keyboard-response,528,825226,null,"<div style=""font-size:42px;"">SCALPEL</div>",null,,word,SCALPEL,,,,,,,,,,,,
html-keyboard-response,529,826735,null,"",null,,word,SCALPEL,,,,,,,,,,,,
html-keyboard-response,530,826952,null,"<div style=""font-size:42px;"">GLASSES</div><img id = ""stim"" ><div class = green_square id = topsquare></div>",null,encoding,word_square,,,1,topsquare,32,true,,,GLASSES,4,,,
html-keyboard-response,531,827264,135.80000001192093,"<div style=""font-size:42px;"">GLASSES</div>",32,,word,GLASSES,,,,,,,,,,,,
html-keyboard-response,532,828767,null,"",null,,word,GLASSES,,,,,,,,,,,,
html-keyboard-response,533,828971,null,"<div style=""font-size:42px;"">COBRA</div><img id = ""stim"" ><div class = red_square id = topsquare></div>",null,encoding,word_square,,,0,topsquare,none,true,,,COBRA,4,,,
html-keyboard-response,534,829286,null,"<div style=""font-size:42px;"">COBRA</div>",null,,word,COBRA,,,,,,,,,,,,
html-keyboard-response,535,830790,null,"",null,,word,COBRA,,,,,,,,,,,,
html-keyboard-response,536,830996,null,"<div style=""font-size:42px;"">SALT</div><img id = ""stim"" ><div class = red_square id = bottomsquare></div>",null,encoding,word_square,,,0,bottomsquare,none,true,,,SALT,4,,,
html-keyboard-response,537,831311,null,"<div style=""font-size:42px;"">SALT</div>",null,,word,SALT,,,,,,,,,,,,
html-keyboard-response,538,832817,null,"",null,,word,SALT,,,,,,,,,,,,
html-keyboard-response,539,833020,null,"<div style=""font-size:42px;"">PARSLEY</div><img id = ""stim"" ><div class = green_square id = bottomsquare></div>",null,encoding,word_square,,,1,bottomsquare,32,true,,,PARSLEY,4,,,
html-keyboard-response,540,833332,155.19999998807907,"<div style=""font-size:42px;"">PARSLEY</div>",32,,word,PARSLEY,,,,,,,,,,,,
html-keyboard-response,541,834847,null,"",null,,word,PARSLEY,,,,,,,,,,,,
html-keyboard-response,542,835065,null,"<div style=""font-size:42px;"">OZONE</div><img id = ""stim"" ><div class = green_square id = topsquare></div>",null,encoding,word_square,,,1,topsquare,32,true,,,OZONE,4,,,
html-keyboard-response,543,835377,263.2999999523163,"<div style=""font-size:42px;"">OZONE</div>",32,,word,OZONE,,,,,,,,,,,,
html-keyboard-response,544,836884,null,"",null,,word,OZONE,,,,,,,,,,,,
html-keyboard-response,545,837101,null,"<div style=""font-size:42px;"">SIRLOIN</div><img id = ""stim"" ><div class = red_square id = topsquare></div>",null,encoding,word_square,,,0,topsquare,none,true,,,SIRLOIN,4,,,
html-keyboard-response,546,837413,null,"<div style=""font-size:42px;"">SIRLOIN</div>",null,,word,SIRLOIN,,,,,,,,,,,,
html-keyboard-response,547,838922,null,"",null,,word,SIRLOIN,,,,,,,,,,,,
html-keyboard-response,548,839126,null,"<div style=""font-size:42px;"">PIANO</div><img id = ""stim"" ><div class = red_square id = bottomsquare></div>",null,encoding,word_square,,,0,bottomsquare,none,true,,,PIANO,4,,,
html-keyboard-response,549,839440,null,"<div style=""font-size:42px;"">PIANO</div>",null,,word,PIANO,,,,,,,,,,,,
html-keyboard-response,550,840952,null,"",null,,word,PIANO,,,,,,,,,,,,
html-keyboard-response,551,841169,null,"<div style=""font-size:42px;"">KIDNEY</div><img id = ""stim"" ><div class = green_square id = bottomsquare></div>",null,encoding,word_square,,,1,bottomsquare,32,true,,,KIDNEY,4,,,
html-keyboard-response,552,841483,173.60000002384186,"<div style=""font-size:42px;"">KIDNEY</div>",32,,word,KIDNEY,,,,,,,,,,,,
html-keyboard-response,553,842991,null,"",null,,word,KIDNEY,,,,,,,,,,,,
html-keyboard-response,554,843195,null,"<div style=""font-size:42px;"">ADULT</div><img id = ""stim"" ><div class = green_square id = topsquare></div>",null,encoding,word_square,,,1,topsquare,32,true,,,ADULT,4,,,
html-keyboard-response,555,843506,177.60000002384186,"<div style=""font-size:42px;"">ADULT</div>",32,,word,ADULT,,,,,,,,,,,,
html-keyboard-response,556,845012,null,"",null,,word,ADULT,,,,,,,,,,,,
html-keyboard-response,557,845217,null,"<div style=""font-size:42px;"">BUTLER</div><img id = ""stim"" ><div class = red_square id = topsquare></div>",null,encoding,word_square,,,0,topsquare,none,true,,,BUTLER,4,,,
html-keyboard-response,558,845531,null,"<div style=""font-size:42px;"">BUTLER</div>",null,,word,BUTLER,,,,,,,,,,,,
html-keyboard-response,559,847047,null,"",null,,word,BUTLER,,,,,,,,,,,,
html-keyboard-response,560,847249,null,"<div style=""font-size:42px;"">CANYON</div><img id = ""stim"" ><div class = red_square id = bottomsquare></div>",null,encoding,word_square,,,0,bottomsquare,none,true,,,CANYON,4,,,
html-keyboard-response,561,847562,null,"<div style=""font-size:42px;"">CANYON</div>",null,,word,CANYON,,,,,,,,,,,,
html-keyboard-response,562,849074,null,"",null,,word,CANYON,,,,,,,,,,,,
html-keyboard-response,563,849291,null,"<div style=""font-size:42px;"">CIGAR</div><img id = ""stim"" ><div class = green_square id = bottomsquare></div>",null,encoding,word_square,,,1,bottomsquare,32,true,,,CIGAR,4,,,
html-keyboard-response,564,849604,229.0999999642372,"<div style=""font-size:42px;"">CIGAR</div>",32,,word,CIGAR,,,,,,,,,,,,
html-keyboard-response,565,851109,null,"",null,,word,CIGAR,,,,,,,,,,,,
html-keyboard-response,566,851314,null,"<div style=""font-size:42px;"">SPICE</div><img id = ""stim"" ><div class = red_square id = topsquare></div>",null,encoding,word_square,,,0,topsquare,none,true,,,SPICE,4,,,
html-keyboard-response,567,851629,null,"<div style=""font-size:42px;"">SPICE</div>",null,,word,SPICE,,,,,,,,,,,,
html-keyboard-response,568,853132,null,"",null,,word,SPICE,,,,,,,,,,,,
call-function,569,853133,,"",,,,,,,,,,,,,,,,
html-keyboard-response,570,853235,null,"",null,,,,,,,,,,,,,,,
math-period,571,855868,5045.299999952316,"",,,,,,,,,,,3,,,,,
html-keyboard-response,572,855978,null,"",null,,,,,,,,,,,,,,,
math-period,573,857215,2400.100000023842,"",,,,,,,,,,,2,,,,,
html-keyboard-response,574,857319,null,"",null,,,,,,,,,,,,,,,
math-period,575,858700,2689.2000000476837,"",,,,,,,,,,,3,,,,,
html-keyboard-response,576,858808,null,"",null,,,,,,,,,,,,,,,
math-period,577,860498,3284.600000023842,"",,,,,,,,,,,5,,,,,
html-keyboard-response,578,860600,null,"",null,,,,,,,,,,,,,,,
math-period,579,861829,2378.6000000834465,"",,,,,,,,,,,3,,,,,
html-keyboard-response,580,861937,null,"",null,,,,,,,,,,,,,,,
math-period,581,863051,2162.199999988079,"",,,,,,,,,,,4,,,,,
html-keyboard-response,582,863153,null,"",null,,,,,,,,,,,,,,,
math-period,583,864684,2982.2000000476837,"",,,,,,,,,,,1,,,,,
html-keyboard-response,584,864787,null,"",null,,,,,,,,,,,,,,,
math-period,585,865724,1822.6999999284744,"",,,,,,,,,,,3,,,,,
html-keyboard-response,586,865840,null,"",null,,,,,,,,,,,,,,,
math-period,587,867334,2945.099999964237,"",,,,,,,,,,,4,,,,,
html-keyboard-response,588,867437,null,"",null,,,,,,,,,,,,,,,
math-period,589,869951,4928.999999940395,"",,,,,,,,,,,4,,,,,
html-keyboard-response,590,870053,null,"",null,,,,,,,,,,,,,,,
math-period,591,871397,2591.9999999403954,"",,,,,,,,,,,4,,,,,
html-keyboard-response,592,871499,null,"",null,,,,,,,,,,,,,,,
math-period,593,873189,3258.400000035763,"",,,,,,,,,,,5,,,,,
html-keyboard-response,594,873303,null,"",null,,,,,,,,,,,,,,,
math-period,595,874348,2014.8999999761581,"",,,,,,,,,,,3,,,,,
html-keyboard-response,596,874450,null,"",null,,,,,,,,,,,,,,,
math-period,597,875818,2642,"",,,,,,,,,,,1,,,,,
html-keyboard-response,598,875921,null,"",null,,,,,,,,,,,,,,,
math-period,599,877134,1137.5,"",,,,,,,,,,,1,,,,,
html-keyboard-response,600,878136,null,"Recall Period!",null,,,,,,,,,,,,,,,
call-function,601,878137,,"",,,,,,,,,,,,,,,,
html-keyboard-response,602,878246,null,"",null,,,,,,,,,,,,,,,
recall-period,603,879866,6080.199999928474,"",,,,,,,,,,,cigar,,,,,
html-keyboard-response,604,879976,null,"",null,,,,,,,,,,,,,,,
recall-period,605,881754,7153.300000071526,"",,,,,,,,,,,spice,,,,,
html-keyboard-response,606,881857,null,"",null,,,,,,,,,,,,,,,
recall-period,607,883077,4308.500000238419,"",,,,,,,,,,,ozone,,,,,
html-keyboard-response,608,883186,null,"",null,,,,,,,,,,,,,,,
recall-period,609,885132,7706.400000035763,"",,,,,,,,,,,scapel,,,,,
html-keyboard-response,610,885249,null,"",null,,,,,,,,,,,,,,,
recall-period,611,906349,82675.70000010729,"",,,,,,,,,,,rug,,,,,
html-keyboard-response,612,906452,null,"",null,,,,,,,,,,,,,,,
recall-period,613,953143,null,"",,,,,,,,,,,,,,,,
html-keyboard-response,614,953657,null,"Time's Up!",null,,,,,,,,,,,,,,,
html-keyboard-response,615,957379,3719.5,"<p> Good job! You have responded correctly to 99% of the trials. </p>
                      <p>Be sure to only press the spacebar if you see a GREEN square, and please keep your accuracy above 80%.</p>
                      <p> Press any key to continue the experiment. </p>",32,,,,,,,,,,,,,,,
html-keyboard-response,616,960310,2929.300000011921,"<div style=""font-size:48px;"">Press any key to begin list 6 of 16 </div>",32,,,,,,,,,,,,,,,
html-keyboard-response,617,962825,null,"<div style=""font-size:60px;"">+</div>",null,,,,,,,,,,,,,,,
html-keyboard-response,618,963028,null,"<div style=""font-size:42px;"">BEAKER</div><img id = ""stim"" ><div class = red_square id = topsquare></div>",null,encoding,word_square,,,0,topsquare,none,false,,,BEAKER,5,,,
html-keyboard-response,619,963340,null,"<div style=""font-size:42px;"">BEAKER</div>",null,,word,BEAKER,,,,,,,,,,,,
html-keyboard-response,620,964855,52,"",32,,word,BEAKER,,,,,,,,,,,,
html-keyboard-response,621,965057,null,"<div style=""font-size:42px;"">BOUQUET</div><img id = ""stim"" ><div class = green_square id = bottomsquare></div>",null,encoding,word_square,,,1,bottomsquare,32,true,,,BOUQUET,5,,,
html-keyboard-response,622,965373,200.5,"<div style=""font-size:42px;"">BOUQUET</div>",32,,word,BOUQUET,,,,,,,,,,,,
html-keyboard-response,623,966881,null,"",null,,word,BOUQUET,,,,,,,,,,,,
html-keyboard-response,624,967099,null,"<div style=""font-size:42px;"">TWIG</div><img id = ""stim"" ><div class = red_square id = bottomsquare></div>",null,encoding,word_square,,,0,bottomsquare,none,true,,,TWIG,5,,,
html-keyboard-response,625,967411,null,"<div style=""font-size:42px;"">TWIG</div>",null,,word,TWIG,,,,,,,,,,,,
html-keyboard-response,626,968917,null,"",null,,word,TWIG,,,,,,,,,,,,
html-keyboard-response,627,969133,null,"<div style=""font-size:42px;"">SHRUB</div><img id = ""stim"" ><div class = red_square id = topsquare></div>",null,encoding,word_square,,,0,topsquare,none,true,,,SHRUB,5,,,
html-keyboard-response,628,969445,null,"<div style=""font-size:42px;"">SHRUB</div>",null,,word,SHRUB,,,,,,,,,,,,
html-keyboard-response,629,970951,null,"",null,,word,SHRUB,,,,,,,,,,,,
html-keyboard-response,630,971155,null,"<div style=""font-size:42px;"">BASKET</div><img id = ""stim"" ><div class = green_square id = topsquare></div>",null,encoding,word_square,,,1,topsquare,32,true,,,BASKET,5,,,
html-keyboard-response,631,971464,196.5999999642372,"<div style=""font-size:42px;"">BASKET</div>",32,,word,BASKET,,,,,,,,,,,,
html-keyboard-response,632,972980,null,"",null,,word,BASKET,,,,,,,,,,,,
html-keyboard-response,633,973184,null,"<div style=""font-size:42px;"">FEMALE</div><img id = ""stim"" ><div class = green_square id = bottomsquare></div>",null,encoding,word_square,,,1,bottomsquare,32,true,,,FEMALE,5,,,
html-keyboard-response,634,973499,205.5999999642372,"<div style=""font-size:42px;"">FEMALE</div>",32,,word,FEMALE,,,,,,,,,,,,
html-keyboard-response,635,975004,null,"",null,,word,FEMALE,,,,,,,,,,,,
html-keyboard-response,636,975208,null,"<div style=""font-size:42px;"">CABOOSE</div><img id = ""stim"" ><div class = red_square id = bottomsquare></div>",null,encoding,word_square,,,0,bottomsquare,none,true,,,CABOOSE,5,,,
html-keyboard-response,637,975522,null,"<div style=""font-size:42px;"">CABOOSE</div>",null,,word,CABOOSE,,,,,,,,,,,,
html-keyboard-response,638,977037,null,"",null,,word,CABOOSE,,,,,,,,,,,,
html-keyboard-response,639,977240,null,"<div style=""font-size:42px;"">NEUTRON</div><img id = ""stim"" ><div class = red_square id = topsquare></div>",null,encoding,word_square,,,0,topsquare,none,true,,,NEUTRON,5,,,
html-keyboard-response,640,977553,null,"<div style=""font-size:42px;"">NEUTRON</div>",null,,word,NEUTRON,,,,,,,,,,,,
html-keyboard-response,641,979058,null,"",null,,word,NEUTRON,,,,,,,,,,,,
html-keyboard-response,642,979261,null,"<div style=""font-size:42px;"">FIREMAN</div><img id = ""stim"" ><div class = green_square id = topsquare></div>",null,encoding,word_square,,,1,topsquare,32,true,,,FIREMAN,5,,,
html-keyboard-response,643,979578,183.89999997615814,"<div style=""font-size:42px;"">FIREMAN</div>",32,,word,FIREMAN,,,,,,,,,,,,
html-keyboard-response,644,981082,null,"",null,,word,FIREMAN,,,,,,,,,,,,
html-keyboard-response,645,981286,null,"<div style=""font-size:42px;"">HAMMOCK</div><img id = ""stim"" ><div class = green_square id = bottomsquare></div>",null,encoding,word_square,,,1,bottomsquare,32,true,,,HAMMOCK,5,,,
html-keyboard-response,646,981599,281.2999999523163,"<div style=""font-size:42px;"">HAMMOCK</div>",32,,word,HAMMOCK,,,,,,,,,,,,
html-keyboard-response,647,983112,null,"",null,,word,HAMMOCK,,,,,,,,,,,,
html-keyboard-response,648,983314,null,"<div style=""font-size:42px;"">CRAB</div><img id = ""stim"" ><div class = red_square id = bottomsquare></div>",null,encoding,word_square,,,0,bottomsquare,none,true,,,CRAB,5,,,
html-keyboard-response,649,983627,null,"<div style=""font-size:42px;"">CRAB</div>",null,,word,CRAB,,,,,,,,,,,,
html-keyboard-response,650,985133,null,"",null,,word,CRAB,,,,,,,,,,,,
html-keyboard-response,651,985351,null,"<div style=""font-size:42px;"">CORAL</div><img id = ""stim"" ><div class = red_square id = topsquare></div>",null,encoding,word_square,,,0,topsquare,none,true,,,CORAL,5,,,
html-keyboard-response,652,985664,null,"<div style=""font-size:42px;"">CORAL</div>",null,,word,CORAL,,,,,,,,,,,,
html-keyboard-response,653,987182,null,"",null,,word,CORAL,,,,,,,,,,,,
html-keyboard-response,654,987400,null,"<div style=""font-size:42px;"">LIPSTICK</div><img id = ""stim"" ><div class = green_square id = topsquare></div>",null,encoding,word_square,,,1,topsquare,32,true,,,LIPSTICK,5,,,
html-keyboard-response,655,987713,null,"<div style=""font-size:42px;"">LIPSTICK</div>",null,,word,LIPSTICK,,,,,,,,,,,,
html-keyboard-response,656,989227,113,"",32,,word,LIPSTICK,,,,,,,,,,,,
html-keyboard-response,657,989445,null,"<div style=""font-size:42px;"">RADISH</div><img id = ""stim"" ><div class = red_square id = bottomsquare></div>",null,encoding,word_square,,,0,bottomsquare,none,true,,,RADISH,5,,,
html-keyboard-response,658,989758,null,"<div style=""font-size:42px;"">RADISH</div>",null,,word,RADISH,,,,,,,,,,,,
html-keyboard-response,659,991260,null,"",null,,word,RADISH,,,,,,,,,,,,
html-keyboard-response,660,991463,null,"<div style=""font-size:42px;"">CIRCUS</div><img id = ""stim"" ><div class = green_square id = bottomsquare></div>",null,encoding,word_square,,,1,bottomsquare,32,true,,,CIRCUS,5,,,
html-keyboard-response,661,991776,177.4000000357628,"<div style=""font-size:42px;"">CIRCUS</div>",32,,word,CIRCUS,,,,,,,,,,,,
html-keyboard-response,662,993286,null,"",null,,word,CIRCUS,,,,,,,,,,,,
html-keyboard-response,663,993505,null,"<div style=""font-size:42px;"">OATMEAL</div><img id = ""stim"" ><div class = green_square id = topsquare></div>",null,encoding,word_square,,,1,topsquare,32,true,,,OATMEAL,5,,,
html-keyboard-response,664,993823,244.5999999642372,"<div style=""font-size:42px;"">OATMEAL</div>",32,,word,OATMEAL,,,,,,,,,,,,
html-keyboard-response,665,995339,null,"",null,,word,OATMEAL,,,,,,,,,,,,
call-function,666,995340,,"",,,,,,,,,,,,,,,,
html-keyboard-response,667,995450,null,"",null,,,,,,,,,,,,,,,
math-period,668,998294,4902.5,"",,,,,,,,,,,4,,,,,
html-keyboard-response,669,998408,null,"",null,,,,,,,,,,,,,,,
math-period,670,1000698,4355.800000011921,"",,,,,,,,,,,0,,,,,
html-keyboard-response,671,1000809,null,"",null,,,,,,,,,,,,,,,
math-period,672,1002774,3833.3000000715256,"",,,,,,,,,,,1,,,,,
html-keyboard-response,673,1002879,null,"",null,,,,,,,,,,,,,,,
math-period,674,1003887,1954.8999999761581,"",,,,,,,,,,,4,,,,,
html-keyboard-response,675,1004002,null,"",null,,,,,,,,,,,,,,,
math-period,676,1004922,1771.5000000596046,"",,,,,,,,,,,3,,,,,
html-keyboard-response,677,1005037,null,"",null,,,,,,,,,,,,,,,
math-period,678,1006284,2425,"",,,,,,,,,,,6,,,,,
html-keyboard-response,679,1006387,null,"",null,,,,,,,,,,,,,,,
math-period,680,1007318,1803.4999999403954,"",,,,,,,,,,,2,,,,,
html-keyboard-response,681,1007421,null,"",null,,,,,,,,,,,,,,,
math-period,682,1008944,2978.7000000476837,"",,,,,,,,,,,5,,,,,
html-keyboard-response,683,1009054,null,"",null,,,,,,,,,,,,,,,
math-period,684,1010511,2750.300000011921,"",,,,,,,,,,,1,,,,,
html-keyboard-response,685,1010619,null,"",null,,,,,,,,,,,,,,,
math-period,686,1013188,5039.699999928474,"",,,,,,,,,,,1,,,,,
html-keyboard-response,687,1013305,null,"",null,,,,,,,,,,,,,,,
math-period,688,1014395,2088.4999999403954,"",,,,,,,,,,,4,,,,,
html-keyboard-response,689,1014497,null,"",null,,,,,,,,,,,,,,,
math-period,690,1016694,4295.199999988079,"",,,,,,,,,,,5,,,,,
html-keyboard-response,691,1016797,null,"",null,,,,,,,,,,,,,,,
math-period,692,1018378,3010.0000000596046,"",,,,,,,,,,,1,,,,,
html-keyboard-response,693,1018489,null,"",null,,,,,,,,,,,,,,,
math-period,694,1019353,null,"",,,,,,,,,,,,,,,,
html-keyboard-response,695,1020360,null,"Recall Period!",null,,,,,,,,,,,,,,,
call-function,696,1020360,,"",,,,,,,,,,,,,,,,
html-keyboard-response,697,1020470,null,"",null,,,,,,,,,,,,,,,
recall-period,698,1022490,12192.100000202656,"",,,,,,,,,,,lipstick,,,,,
html-keyboard-response,699,1022607,null,"",null,,,,,,,,,,,,,,,
recall-period,700,1023437,2571.899999976158,"",,,,,,,,,,,coral,,,,,
html-keyboard-response,701,1023543,null,"",null,,,,,,,,,,,,,,,
recall-period,702,1025242,8470.799999773502,"",,,,,,,,,,,oatmeal,,,,,
html-keyboard-response,703,1025355,null,"",null,,,,,,,,,,,,,,,
recall-period,704,1026684,5453.700000166893,"",,,,,,,,,,,fluff,,,,,
html-keyboard-response,705,1026796,null,"",null,,,,,,,,,,,,,,,
recall-period,706,1028979,9171.700000166893,"",,,,,,,,,,,food,,,,,
html-keyboard-response,707,1029083,null,"",null,,,,,,,,,,,,,,,
recall-period,708,1034279,23619.29999989271,"",,,,,,,,,,,dish,,,,,
html-keyboard-response,709,1034381,null,"",null,,,,,,,,,,,,,,,
recall-period,710,1035163,1894.8999998569489,"",,,,,,,,,,,dog,,,,,
html-keyboard-response,711,1035271,null,"",null,,,,,,,,,,,,,,,
recall-period,712,1038105,14230.899999916553,"",,,,,,,,,,,banquet,,,,,
html-keyboard-response,713,1038209,null,"",null,,,,,,,,,,,,,,,
recall-period,714,1038999,2198.599999845028,"",,,,,,,,,,,bold,,,,,
html-keyboard-response,715,1039115,null,"",null,,,,,,,,,,,,,,,
recall-period,716,1040205,3257.2999999523163,"",,,,,,,,,,,big,,,,,
html-keyboard-response,717,1040320,null,"",null,,,,,,,,,,,,,,,
recall-period,718,1041147,2061.199999988079,"",,,,,,,,,,,fish,,,,,
html-keyboard-response,719,1041262,null,"",null,,,,,,,,,,,,,,,
recall-period,720,1095374,null,"",,,,,,,,,,,,,,,,
html-keyboard-response,721,1095878,null,"Time's Up!",null,,,,,,,,,,,,,,,
html-keyboard-response,722,1130706,34826.5,"<p> Good job! You have responded correctly to 98% of the trials. </p>
                      <p>Be sure to only press the spacebar if you see a GREEN square, and please keep your accuracy above 80%.</p>
                      <p> Press any key to continue the experiment. </p>",32,,,,,,,,,,,,,,,
html-keyboard-response,723,1134448,3740.300000011921,"<div style=""font-size:48px;"">Press any key to begin list 7 of 16 </div>",32,,,,,,,,,,,,,,,
html-keyboard-response,724,1136957,null,"<div style=""font-size:60px;"">+</div>",null,,,,,,,,,,,,,,,
html-keyboard-response,725,1137161,null,"<div style=""font-size:42px;"">TOILET</div><img id = ""stim"" ><div class = red_square id = bottomsquare></div>",null,encoding,word_square,,,0,bottomsquare,none,true,,,TOILET,6,,,
html-keyboard-response,726,1137475,null,"<div style=""font-size:42px;"">TOILET</div>",null,,word,TOILET,,,,,,,,,,,,
html-keyboard-response,727,1138978,null,"",null,,word,TOILET,,,,,,,,,,,,
html-keyboard-response,728,1139194,null,"<div style=""font-size:42px;"">BISON</div><img id = ""stim"" ><div class = red_square id = topsquare></div>",null,encoding,word_square,,,0,topsquare,none,true,,,BISON,6,,,
html-keyboard-response,729,1139507,null,"<div style=""font-size:42px;"">BISON</div>",null,,word,BISON,,,,,,,,,,,,
html-keyboard-response,730,1141017,null,"",null,,word,BISON,,,,,,,,,,,,
html-keyboard-response,731,1141220,null,"<div style=""font-size:42px;"">CATTLE</div><img id = ""stim"" ><div class = green_square id = topsquare></div>",null,encoding,word_square,,,1,topsquare,32,true,,,CATTLE,6,,,
html-keyboard-response,732,1141532,228.5,"<div style=""font-size:42px;"">CATTLE</div>",32,,word,CATTLE,,,,,,,,,,,,
html-keyboard-response,733,1143038,null,"",null,,word,CATTLE,,,,,,,,,,,,
html-keyboard-response,734,1143243,null,"<div style=""font-size:42px;"">CABBAGE</div><img id = ""stim"" ><div class = red_square id = bottomsquare></div>",null,encoding,word_square,,,0,bottomsquare,none,true,,,CABBAGE,6,,,
html-keyboard-response,735,1143559,null,"<div style=""font-size:42px;"">CABBAGE</div>",null,,word,CABBAGE,,,,,,,,,,,,
html-keyboard-response,736,1145067,null,"",null,,word,CABBAGE,,,,,,,,,,,,
html-keyboard-response,737,1145271,null,"<div style=""font-size:42px;"">TRANSPLANT</div><img id = ""stim"" ><div class = green_square id = bottomsquare></div>",null,encoding,word_square,,,1,bottomsquare,32,true,,,TRANSPLANT,6,,,
html-keyboard-response,738,1145584,210.69999998807907,"<div style=""font-size:42px;"">TRANSPLANT</div>",32,,word,TRANSPLANT,,,,,,,,,,,,
html-keyboard-response,739,1147091,null,"",null,,word,TRANSPLANT,,,,,,,,,,,,
html-keyboard-response,740,1147294,null,"<div style=""font-size:42px;"">STAPLE</div><img id = ""stim"" ><div class = green_square id = topsquare></div>",null,encoding,word_square,,,1,topsquare,32,true,,,STAPLE,6,,,
html-keyboard-response,741,1147609,221.19999998807907,"<div style=""font-size:42px;"">STAPLE</div>",32,,word,STAPLE,,,,,,,,,,,,
html-keyboard-response,742,1149116,null,"",null,,word,STAPLE,,,,,,,,,,,,
html-keyboard-response,743,1149318,null,"<div style=""font-size:42px;"">MONARCH</div><img id = ""stim"" ><div class = red_square id = topsquare></div>",null,encoding,word_square,,,0,topsquare,none,true,,,MONARCH,6,,,
html-keyboard-response,744,1149634,null,"<div style=""font-size:42px;"">MONARCH</div>",null,,word,MONARCH,,,,,,,,,,,,
html-keyboard-response,745,1151145,null,"",null,,word,MONARCH,,,,,,,,,,,,
html-keyboard-response,746,1151349,null,"<div style=""font-size:42px;"">TURNIP</div><img id = ""stim"" ><div class = red_square id = bottomsquare></div>",null,encoding,word_square,,,0,bottomsquare,none,true,,,TURNIP,6,,,
html-keyboard-response,747,1151662,null,"<div style=""font-size:42px;"">TURNIP</div>",null,,word,TURNIP,,,,,,,,,,,,
html-keyboard-response,748,1153167,null,"",null,,word,TURNIP,,,,,,,,,,,,
html-keyboard-response,749,1153370,null,"<div style=""font-size:42px;"">STOCKING</div><img id = ""stim"" ><div class = green_square id = bottomsquare></div>",null,encoding,word_square,,,1,bottomsquare,32,true,,,STOCKING,6,,,
html-keyboard-response,750,1153685,170.19999998807907,"<div style=""font-size:42px;"">STOCKING</div>",32,,word,STOCKING,,,,,,,,,,,,
html-keyboard-response,751,1155191,null,"",null,,word,STOCKING,,,,,,,,,,,,
html-keyboard-response,752,1155394,null,"<div style=""font-size:42px;"">HAND</div><img id = ""stim"" ><div class = green_square id = topsquare></div>",null,encoding,word_square,,,1,topsquare,32,true,,,HAND,6,,,
html-keyboard-response,753,1155709,263.39999997615814,"<div style=""font-size:42px;"">HAND</div>",32,,word,HAND,,,,,,,,,,,,
html-keyboard-response,754,1157213,null,"",null,,word,HAND,,,,,,,,,,,,
html-keyboard-response,755,1157430,null,"<div style=""font-size:42px;"">CHARCOAL</div><img id = ""stim"" ><div class = red_square id = topsquare></div>",null,encoding,word_square,,,0,topsquare,none,true,,,CHARCOAL,6,,,
html-keyboard-response,756,1157742,null,"<div style=""font-size:42px;"">CHARCOAL</div>",null,,word,CHARCOAL,,,,,,,,,,,,
html-keyboard-response,757,1159259,null,"",null,,word,CHARCOAL,,,,,,,,,,,,
html-keyboard-response,758,1159476,null,"<div style=""font-size:42px;"">BELLY</div><img id = ""stim"" ><div class = red_square id = bottomsquare></div>",null,encoding,word_square,,,0,bottomsquare,none,true,,,BELLY,6,,,
html-keyboard-response,759,1159787,null,"<div style=""font-size:42px;"">BELLY</div>",null,,word,BELLY,,,,,,,,,,,,
html-keyboard-response,760,1161305,null,"",null,,word,BELLY,,,,,,,,,,,,
html-keyboard-response,761,1161510,null,"<div style=""font-size:42px;"">MASK</div><img id = ""stim"" ><div class = green_square id = bottomsquare></div>",null,encoding,word_square,,,1,bottomsquare,32,true,,,MASK,6,,,
html-keyboard-response,762,1161820,245.89999997615814,"<div style=""font-size:42px;"">MASK</div>",32,,word,MASK,,,,,,,,,,,,
html-keyboard-response,763,1163324,null,"",null,,word,MASK,,,,,,,,,,,,
html-keyboard-response,764,1163541,null,"<div style=""font-size:42px;"">ISLAND</div><img id = ""stim"" ><div class = green_square id = topsquare></div>",null,encoding,word_square,,,1,topsquare,32,true,,,ISLAND,6,,,
html-keyboard-response,765,1163852,185.19999998807907,"<div style=""font-size:42px;"">ISLAND</div>",32,,word,ISLAND,,,,,,,,,,,,
html-keyboard-response,766,1165356,null,"",null,,word,ISLAND,,,,,,,,,,,,
html-keyboard-response,767,1165573,null,"<div style=""font-size:42px;"">PRINCESS</div><img id = ""stim"" ><div class = red_square id = topsquare></div>",null,encoding,word_square,,,0,topsquare,none,true,,,PRINCESS,6,,,
html-keyboard-response,768,1165887,null,"<div style=""font-size:42px;"">PRINCESS</div>",null,,word,PRINCESS,,,,,,,,,,,,
html-keyboard-response,769,1167404,null,"",null,,word,PRINCESS,,,,,,,,,,,,
html-keyboard-response,770,1167609,null,"<div style=""font-size:42px;"">STREET</div><img id = ""stim"" ><div class = green_square id = bottomsquare></div>",null,encoding,word_square,,,1,bottomsquare,32,true,,,STREET,6,,,
html-keyboard-response,771,1167923,148.19999998807907,"<div style=""font-size:42px;"">STREET</div>",32,,word,STREET,,,,,,,,,,,,
html-keyboard-response,772,1169431,null,"",null,,word,STREET,,,,,,,,,,,,
call-function,773,1169433,,"",,,,,,,,,,,,,,,,
html-keyboard-response,774,1169541,null,"",null,,,,,,,,,,,,,,,
math-period,775,1171364,3399.199999988079,"",,,,,,,,,,,5,,,,,
html-keyboard-response,776,1171470,null,"",null,,,,,,,,,,,,,,,
math-period,777,1172869,2715.599999964237,"",,,,,,,,,,,1,,,,,
html-keyboard-response,778,1172975,null,"",null,,,,,,,,,,,,,,,
math-period,779,1174353,2691.699999988079,"",,,,,,,,,,,4,,,,,
html-keyboard-response,780,1174456,null,"",null,,,,,,,,,,,,,,,
math-period,781,1175971,2927.400000035763,"",,,,,,,,,,,2,,,,,
html-keyboard-response,782,1176087,null,"",null,,,,,,,,,,,,,,,
math-period,783,1177664,3048.600000023842,"",,,,,,,,,,,2,,,,,
html-keyboard-response,784,1177768,null,"",null,,,,,,,,,,,,,,,
math-period,785,1182119,8557.799999952316,"",,,,,,,,,,,4,,,,,
html-keyboard-response,786,1182236,null,"",null,,,,,,,,,,,,,,,
math-period,787,1183566,2533.900000035763,"",,,,,,,,,,,5,,,,,
html-keyboard-response,788,1183682,null,"",null,,,,,,,,,,,,,,,
math-period,789,1184846,2235.600000023842,"",,,,,,,,,,,2,,,,,
html-keyboard-response,790,1184957,null,"",null,,,,,,,,,,,,,,,
math-period,791,1186070,2160.7999999523163,"",,,,,,,,,,,5,,,,,
html-keyboard-response,792,1186180,null,"",null,,,,,,,,,,,,,,,
math-period,793,1187262,2092.400000035763,"",,,,,,,,,,,3,,,,,
html-keyboard-response,794,1187369,null,"",null,,,,,,,,,,,,,,,
math-period,795,1188528,2219.400000035763,"",,,,,,,,,,,4,,,,,
html-keyboard-response,796,1188630,null,"",null,,,,,,,,,,,,,,,
math-period,797,1189855,2347.4000000953674,"",,,,,,,,,,,2,,,,,
html-keyboard-response,798,1189960,null,"",null,,,,,,,,,,,,,,,
math-period,799,1191170,2310.7999999523163,"",,,,,,,,,,,6,,,,,
html-keyboard-response,800,1191277,null,"",null,,,,,,,,,,,,,,,
math-period,801,1192751,2845.5000000596046,"",,,,,,,,,,,1,,,,,
html-keyboard-response,802,1192858,null,"",null,,,,,,,,,,,,,,,
math-period,803,1193436,null,"",,,,,,,,,,,,,,,,
html-keyboard-response,804,1194441,null,"Recall Period!",null,,,,,,,,,,,,,,,
call-function,805,1194442,,"",,,,,,,,,,,,,,,,
html-keyboard-response,806,1194544,null,"",null,,,,,,,,,,,,,,,
recall-period,807,1197203,11427.80000013113,"",,,,,,,,,,,mask,,,,,
html-keyboard-response,808,1197316,null,"",null,,,,,,,,,,,,,,,
recall-period,809,1199857,14396.200000107288,"",,,,,,,,,,,island,,,,,
html-keyboard-response,810,1199973,null,"",null,,,,,,,,,,,,,,,
recall-period,811,1202840,12660.700000107288,"",,,,,,,,,,,street,,,,,
html-keyboard-response,812,1202948,null,"",null,,,,,,,,,,,,,,,
recall-period,813,1245127,249941,"",,,,,,,,,,,belly,,,,,
html-keyboard-response,814,1245235,null,"",null,,,,,,,,,,,,,,,
recall-period,815,1247508,10313.500000298023,"",,,,,,,,,,,charcoal,,,,,
html-keyboard-response,816,1247619,null,"",null,,,,,,,,,,,,,,,
recall-period,817,1252623,31219.799999952316,"",,,,,,,,,,,island,,,,,
html-keyboard-response,818,1252727,null,"",null,,,,,,,,,,,,,,,
recall-period,819,1264975,69912.90000015497,"",,,,,,,,,,,beast,,,,,
html-keyboard-response,820,1265089,null,"",null,,,,,,,,,,,,,,,
recall-period,821,1266966,7272.300000011921,"",,,,,,,,,,,sand,,,,,
html-keyboard-response,822,1267081,null,"",null,,,,,,,,,,,,,,,
recall-period,823,1269450,null,"",,,,,,,,,,,,,,,,
html-keyboard-response,824,1269966,null,"Time's Up!",null,,,,,,,,,,,,,,,
html-keyboard-response,825,1274767,4797.800000011921,"<p> Good job! You have responded correctly to 98% of the trials. </p>
                      <p>Be sure to only press the spacebar if you see a GREEN square, and please keep your accuracy above 80%.</p>
                      <p> Press any key to continue the experiment. </p>",32,,,,,,,,,,,,,,,
html-keyboard-response,826,1276036,1268,"<div style=""font-size:48px;"">Press any key to begin list 8 of 16 </div>",32,,,,,,,,,,,,,,,
html-keyboard-response,827,1278551,null,"<div style=""font-size:60px;"">+</div>",null,,,,,,,,,,,,,,,
html-keyboard-response,828,1278756,null,"<div style=""font-size:42px;"">STOMACH</div><img id = ""stim"" ><div class = green_square id = bottomsquare></div>",null,encoding,word_square,,,1,bottomsquare,32,true,,,STOMACH,7,,,
html-keyboard-response,829,1279072,null,"<div style=""font-size:42px;"">STOMACH</div>",null,,word,STOMACH,,,,,,,,,,,,
html-keyboard-response,830,1280583,389.89999997615814,"",32,,word,STOMACH,,,,,,,,,,,,
html-keyboard-response,831,1280787,null,"<div style=""font-size:42px;"">ULCER</div><img id = ""stim"" ><div class = red_square id = topsquare></div>",null,encoding,word_square,,,0,topsquare,none,true,,,ULCER,7,,,
html-keyboard-response,832,1281098,null,"<div style=""font-size:42px;"">ULCER</div>",null,,word,ULCER,,,,,,,,,,,,
html-keyboard-response,833,1282612,null,"",null,,word,ULCER,,,,,,,,,,,,
html-keyboard-response,834,1282815,null,"<div style=""font-size:42px;"">EUROPE</div><img id = ""stim"" ><div class = green_square id = topsquare></div>",null,encoding,word_square,,,1,topsquare,32,true,,,EUROPE,7,,,
html-keyboard-response,835,1283128,215.5,"<div style=""font-size:42px;"">EUROPE</div>",32,,word,EUROPE,,,,,,,,,,,,
html-keyboard-response,836,1284633,null,"",null,,word,EUROPE,,,,,,,,,,,,
html-keyboard-response,837,1284850,null,"<div style=""font-size:42px;"">GRAVE</div><img id = ""stim"" ><div class = green_square id = bottomsquare></div>",null,encoding,word_square,,,1,bottomsquare,32,true,,,GRAVE,7,,,
html-keyboard-response,838,1285166,279.69999998807907,"<div style=""font-size:42px;"">GRAVE</div>",32,,word,GRAVE,,,,,,,,,,,,
html-keyboard-response,839,1286681,null,"",null,,word,GRAVE,,,,,,,,,,,,
html-keyboard-response,840,1286885,null,"<div style=""font-size:42px;"">TOMBSTONE</div><img id = ""stim"" ><div class = red_square id = bottomsquare></div>",null,encoding,word_square,,,0,bottomsquare,none,true,,,TOMBSTONE,7,,,
html-keyboard-response,841,1287199,null,"<div style=""font-size:42px;"">TOMBSTONE</div>",null,,word,TOMBSTONE,,,,,,,,,,,,
html-keyboard-response,842,1288714,null,"",null,,word,TOMBSTONE,,,,,,,,,,,,
html-keyboard-response,843,1288932,null,"<div style=""font-size:42px;"">TRUCK</div><img id = ""stim"" ><div class = red_square id = topsquare></div>",null,encoding,word_square,,,0,topsquare,none,true,,,TRUCK,7,,,
html-keyboard-response,844,1289244,null,"<div style=""font-size:42px;"">TRUCK</div>",null,,word,TRUCK,,,,,,,,,,,,
html-keyboard-response,845,1290751,null,"",null,,word,TRUCK,,,,,,,,,,,,
html-keyboard-response,846,1290954,null,"<div style=""font-size:42px;"">EYELASH</div><img id = ""stim"" ><div class = green_square id = topsquare></div>",null,encoding,word_square,,,1,topsquare,32,true,,,EYELASH,7,,,
html-keyboard-response,847,1291267,125.10000002384186,"<div style=""font-size:42px;"">EYELASH</div>",32,,word,EYELASH,,,,,,,,,,,,
html-keyboard-response,848,1292773,null,"",null,,word,EYELASH,,,,,,,,,,,,
html-keyboard-response,849,1292977,null,"<div style=""font-size:42px;"">FROG</div><img id = ""stim"" ><div class = green_square id = bottomsquare></div>",null,encoding,word_square,,,1,bottomsquare,32,true,,,FROG,7,,,
html-keyboard-response,850,1293291,179.9000000357628,"<div style=""font-size:42px;"">FROG</div>",32,,word,FROG,,,,,,,,,,,,
html-keyboard-response,851,1294806,null,"",null,,word,FROG,,,,,,,,,,,,
html-keyboard-response,852,1295012,null,"<div style=""font-size:42px;"">OX</div><img id = ""stim"" ><div class = red_square id = bottomsquare></div>",null,encoding,word_square,,,0,bottomsquare,none,true,,,OX,7,,,
html-keyboard-response,853,1295322,null,"<div style=""font-size:42px;"">OX</div>",null,,word,OX,,,,,,,,,,,,
html-keyboard-response,854,1296828,null,"",null,,word,OX,,,,,,,,,,,,
html-keyboard-response,855,1297046,null,"<div style=""font-size:42px;"">CAFE</div><img id = ""stim"" ><div class = red_square id = topsquare></div>",null,encoding,word_square,,,0,topsquare,none,true,,,CAFE,7,,,
html-keyboard-response,856,1297361,null,"<div style=""font-size:42px;"">CAFE</div>",null,,word,CAFE,,,,,,,,,,,,
html-keyboard-response,857,1298869,null,"",null,,word,CAFE,,,,,,,,,,,,
html-keyboard-response,858,1299087,null,"<div style=""font-size:42px;"">BRANDY</div><img id = ""stim"" ><div class = green_square id = topsquare></div>",null,encoding,word_square,,,1,topsquare,32,true,,,BRANDY,7,,,
html-keyboard-response,859,1299399,147,"<div style=""font-size:42px;"">BRANDY</div>",32,,word,BRANDY,,,,,,,,,,,,
html-keyboard-response,860,1300902,null,"",null,,word,BRANDY,,,,,,,,,,,,
html-keyboard-response,861,1301121,null,"<div style=""font-size:42px;"">BEETLE</div><img id = ""stim"" ><div class = green_square id = bottomsquare></div>",null,encoding,word_square,,,1,bottomsquare,32,true,,,BEETLE,7,,,
html-keyboard-response,862,1301432,183.9000000357628,"<div style=""font-size:42px;"">BEETLE</div>",32,,word,BEETLE,,,,,,,,,,,,
html-keyboard-response,863,1302944,null,"",null,,word,BEETLE,,,,,,,,,,,,
html-keyboard-response,864,1303148,null,"<div style=""font-size:42px;"">FLASK</div><img id = ""stim"" ><div class = red_square id = bottomsquare></div>",null,encoding,word_square,,,0,bottomsquare,none,true,,,FLASK,7,,,
html-keyboard-response,865,1303460,null,"<div style=""font-size:42px;"">FLASK</div>",null,,word,FLASK,,,,,,,,,,,,
html-keyboard-response,866,1304976,null,"",null,,word,FLASK,,,,,,,,,,,,
html-keyboard-response,867,1305194,null,"<div style=""font-size:42px;"">BROOK</div><img id = ""stim"" ><div class = green_square id = topsquare></div>",null,encoding,word_square,,,1,topsquare,32,true,,,BROOK,7,,,
html-keyboard-response,868,1305505,171.4000000357628,"<div style=""font-size:42px;"">BROOK</div>",32,,word,BROOK,,,,,,,,,,,,
html-keyboard-response,869,1307010,null,"",null,,word,BROOK,,,,,,,,,,,,
html-keyboard-response,870,1307217,null,"<div style=""font-size:42px;"">COLESLAW</div><img id = ""stim"" ><div class = red_square id = topsquare></div>",null,encoding,word_square,,,0,topsquare,none,true,,,COLESLAW,7,,,
html-keyboard-response,871,1307533,null,"<div style=""font-size:42px;"">COLESLAW</div>",null,,word,COLESLAW,,,,,,,,,,,,
html-keyboard-response,872,1309039,null,"",null,,word,COLESLAW,,,,,,,,,,,,
html-keyboard-response,873,1309255,null,"<div style=""font-size:42px;"">COUNTRY</div><img id = ""stim"" ><div class = red_square id = bottomsquare></div>",null,encoding,word_square,,,0,bottomsquare,none,true,,,COUNTRY,7,,,
html-keyboard-response,874,1309567,null,"<div style=""font-size:42px;"">COUNTRY</div>",null,,word,COUNTRY,,,,,,,,,,,,
html-keyboard-response,875,1311085,null,"",null,,word,COUNTRY,,,,,,,,,,,,
call-function,876,1311086,,"",,,,,,,,,,,,,,,,
html-keyboard-response,877,1311193,null,"",null,,,,,,,,,,,,,,,
math-period,878,1313291,3922.100000023842,"",,,,,,,,,,,2,,,,,
html-keyboard-response,879,1313406,null,"",null,,,,,,,,,,,,,,,
math-period,880,1314778,2675.5,"",,,,,,,,,,,4,,,,,
html-keyboard-response,881,1314881,null,"",null,,,,,,,,,,,,,,,
math-period,882,1316136,2432.699999988079,"",,,,,,,,,,,2,,,,,
html-keyboard-response,883,1316238,null,"",null,,,,,,,,,,,,,,,
math-period,884,1317822,3026.0999999046326,"",,,,,,,,,,,1,,,,,
html-keyboard-response,885,1317931,null,"",null,,,,,,,,,,,,,,,
math-period,886,1319280,2627.600000023842,"",,,,,,,,,,,4,,,,,
html-keyboard-response,887,1319385,null,"",null,,,,,,,,,,,,,,,
math-period,888,1320620,2373.4000000953674,"",,,,,,,,,,,4,,,,,
html-keyboard-response,889,1320733,null,"",null,,,,,,,,,,,,,,,
math-period,890,1321658,1769.6000000238419,"",,,,,,,,,,,3,,,,,
html-keyboard-response,891,1321763,null,"",null,,,,,,,,,,,,,,,
math-period,892,1322598,1590.0999999642372,"",,,,,,,,,,,3,,,,,
html-keyboard-response,893,1322701,null,"",null,,,,,,,,,,,,,,,
math-period,894,1324037,2610.300000011921,"",,,,,,,,,,,6,,,,,
html-keyboard-response,895,1324141,null,"",null,,,,,,,,,,,,,,,
math-period,896,1325413,2469.100000023842,"",,,,,,,,,,,1,,,,,
html-keyboard-response,897,1325524,null,"",null,,,,,,,,,,,,,,,
math-period,898,1327753,4350.900000035763,"",,,,,,,,,,,2,,,,,
html-keyboard-response,899,1327869,null,"",null,,,,,,,,,,,,,,,
math-period,900,1328900,1984.5999999642372,"",,,,,,,,,,,3,,,,,
html-keyboard-response,901,1329017,null,"",null,,,,,,,,,,,,,,,
math-period,902,1330689,3200.4999999403954,"",,,,,,,,,,,1,,,,,
html-keyboard-response,903,1330792,null,"",null,,,,,,,,,,,,,,,
math-period,904,1332262,2851.5,"",,,,,,,,,,,3,,,,,
html-keyboard-response,905,1332368,null,"",null,,,,,,,,,,,,,,,
math-period,906,1333723,2626.8000000715256,"",,,,,,,,,,,6,,,,,
html-keyboard-response,907,1333825,null,"",null,,,,,,,,,,,,,,,
math-period,908,1334995,2236.4000000953674,"",,,,,,,,,,,5,,,,,
html-keyboard-response,909,1335098,null,"",null,,,,,,,,,,,,,,,
math-period,910,1335101,null,"",,,,,,,,,,,,,,,,
html-keyboard-response,911,1336109,null,"Recall Period!",null,,,,,,,,,,,,,,,
call-function,912,1336110,,"",,,,,,,,,,,,,,,,
html-keyboard-response,913,1336212,null,"",null,,,,,,,,,,,,,,,
recall-period,914,1338642,9194.599999904633,"",,,,,,,,,,,period,,,,,
html-keyboard-response,915,1338751,null,"",null,,,,,,,,,,,,,,,
recall-period,916,1342258,29917.29999989271,"",,,,,,,,,,,eyelash,,,,,
html-keyboard-response,917,1342370,null,"",null,,,,,,,,,,,,,,,
recall-period,918,1345426,16008.999999761581,"",,,,,,,,,,,sundae,,,,,
html-keyboard-response,919,1345530,null,"",null,,,,,,,,,,,,,,,
recall-period,920,1348181,11190.699999928474,"",,,,,,,,,,,frog,,,,,
html-keyboard-response,921,1348295,null,"",null,,,,,,,,,,,,,,,
recall-period,922,1351271,15733.39999973774,"",,,,,,,,,,,mushroom,,,,,
html-keyboard-response,923,1351381,null,"",null,,,,,,,,,,,,,,,
recall-period,924,1353579,7470.5,"",,,,,,,,,,,car,,,,,
html-keyboard-response,925,1353682,null,"",null,,,,,,,,,,,,,,,
recall-period,926,1355441,7611.699999809265,"",,,,,,,,,,,trash,,,,,
html-keyboard-response,927,1355554,null,"",null,,,,,,,,,,,,,,,
recall-period,928,1411122,null,"",,,,,,,,,,,,,,,,
html-keyboard-response,929,1411636,null,"Time's Up!",null,,,,,,,,,,,,,,,
html-keyboard-response,930,1419994,8356.100000023842,"<p> Good job! You have responded correctly to 98% of the trials. </p>
                      <p>Be sure to only press the spacebar if you see a GREEN square, and please keep your accuracy above 80%.</p>
                      <p> Press any key to continue the experiment. </p>",32,,,,,,,,,,,,,,,
html-keyboard-response,931,1421500,1504.7000000476837,"<div style=""font-size:48px;"">Press any key to begin list 9 of 16 </div>",32,,,,,,,,,,,,,,,
html-keyboard-response,932,1424026,null,"<div style=""font-size:60px;"">+</div>",null,,,,,,,,,,,,,,,
html-keyboard-response,933,1424231,null,"<div style=""font-size:42px;"">SCHOOL</div><img id = ""stim"" ><div class = green_square id = topsquare></div>",null,encoding,word_square,,,1,topsquare,32,true,,,SCHOOL,8,,,
html-keyboard-response,934,1424544,229.80000001192093,"<div style=""font-size:42px;"">SCHOOL</div>",32,,word,SCHOOL,,,,,,,,,,,,
html-keyboard-response,935,1426060,null,"",null,,word,SCHOOL,,,,,,,,,,,,
