trial_type,trial_index,time_elapsed,rt,stimulus,key_press,exp_phase,test_part,word,task,targ_cond,sq_pos,correctKeyCode,correct,value,response,Word,List,RecResp,serial_pos,colorChosen
pavlovia,0,2430,,"",,,,,,,,,,,,,,,,
external-html,1,6904,4456.800000011921,"",,,,,,,,,,,,,,,,
html-keyboard-response,2,7806,896.0999999642372,"Welcome to the experiment. Press any key to begin.",32,,,,,,,,,,,,,,,
html-keyboard-response,3,11507,3696.900000035763,"<p>You will see a list of words and colored squares in the following task.<p><p>Press the spacebar whenever you see a GREEN square.<p><p>Do not press a key if the square is RED.<p><p>Press the spacebar to continue.</p>",32,,,,,,,,,,,,,,,
html-keyboard-response,4,12607,593.8999999761581,"<p>Please try to remember as many of the words as you can, and try to think about the meaning of each word as it appears.<p><p>After the detection and encoding task you will be asked to solve some math problems for 24 seconds.<p> Please solve as many problems as you can in the time given. <p><p><p>Press the spacebar to continue.</p>",32,,,,,,,,,,,,,,,
html-keyboard-response,5,15091,1908.199999988079,"After solving the math problems, you will be asked to type in as many words <p>from the previous list as you can remember for 75 seconds.<p> If you finish recalling before the 75 seconds are up,<p> just sit tight and try to think of any more words you could have missed. <p><p><p>Press the spacebar to continue.</p>",32,,,,,,,,,,,,,,,
html-keyboard-response,6,17120,1519.5,"There will be 16 lists of words and recall, followed  by<p><p> a recognition phase. The experiment is expected to take up to 90 minutes.<p>We will begin with a brief practice session.<p>Press the spacebar to begin the practice.</p>",32,,,,,,,,,,,,,,,
html-keyboard-response,7,19655,null,"<div style=""font-size:60px;"">+</div>",null,,,,,,,,,,,,,,,
html-keyboard-response,8,19868,null,"<div style=""font-size:42px;"">HAPPY</div><img id = ""stim"" ><div class = red_square id = ""bottomsquare"" ></div>",null,practice,word_square,HAPPY,prac_response,0,Bottom,none,true,,,,,,,
html-keyboard-response,9,20176,null,"<div style=""font-size:42px;"">HAPPY</div>",null,,word,HAPPY,,,,,,,,,,,,
html-keyboard-response,10,21691,null,"",null,,word,HAPPY,,,,,,,,,,,,
html-keyboard-response,11,21899,null,"<div style=""font-size:42px;"">COLD</div><img id = ""stim"" ><div class = green_square id = ""bottomsquare"" ></div>",null,practice,word_square,COLD,prac_response,1,Bottom,32,true,,,,,,,
html-keyboard-response,12,22205,270,"<div style=""font-size:42px;"">COLD</div>",32,,word,COLD,,,,,,,,,,,,
html-keyboard-response,13,23716,null,"",null,,word,COLD,,,,,,,,,,,,
html-keyboard-response,14,23930,null,"<div style=""font-size:42px;"">HEAVY</div><img id = ""stim"" ><div class = green_square id = ""topsquare"" ></div>",null,practice,word_square,HEAVY,prac_response,1,Top,32,true,,,,,,,
html-keyboard-response,15,24238,null,"<div style=""font-size:42px;"">HEAVY</div>",null,,word,HEAVY,,,,,,,,,,,,
html-keyboard-response,16,25749,115.80000001192093,"",32,,word,HEAVY,,,,,,,,,,,,
html-keyboard-response,17,25956,null,"<div style=""font-size:42px;"">FUNNY</div><img id = ""stim"" ><div class = red_square id = ""topsquare"" ></div>",null,practice,word_square,FUNNY,prac_response,0,Top,none,true,,,,,,,
html-keyboard-response,18,26267,null,"<div style=""font-size:42px;"">FUNNY</div>",null,,word,FUNNY,,,,,,,,,,,,
html-keyboard-response,19,27772,null,"",null,,word,FUNNY,,,,,,,,,,,,
html-keyboard-response,20,27988,null,"<div style=""font-size:42px;"">SCARY</div><img id = ""stim"" ><div class = green_square id = ""bottomsquare"" ></div>",null,practice,word_square,SCARY,prac_response,1,Bottom,32,true,,,,,,,
html-keyboard-response,21,28298,244.30000001192093,"<div style=""font-size:42px;"">SCARY</div>",32,,word,SCARY,,,,,,,,,,,,
html-keyboard-response,22,29813,null,"",null,,word,SCARY,,,,,,,,,,,,
html-keyboard-response,23,30025,null,"<div style=""font-size:42px;"">PEACEFUL</div><img id = ""stim"" ><div class = green_square id = ""topsquare"" ></div>",null,practice,word_square,PEACEFUL,prac_response,1,Top,32,true,,,,,,,
html-keyboard-response,24,30341,null,"<div style=""font-size:42px;"">PEACEFUL</div>",null,,word,PEACEFUL,,,,,,,,,,,,
html-keyboard-response,25,31861,85.5,"",32,,word,PEACEFUL,,,,,,,,,,,,
html-keyboard-response,26,32080,null,"<div style=""font-size:42px;"">LITTLE</div><img id = ""stim"" ><div class = red_square id = ""bottomsquare"" ></div>",null,practice,word_square,LITTLE,prac_response,0,Bottom,none,true,,,,,,,
html-keyboard-response,27,32393,null,"<div style=""font-size:42px;"">LITTLE</div>",null,,word,LITTLE,,,,,,,,,,,,
html-keyboard-response,28,33908,null,"",null,,word,LITTLE,,,,,,,,,,,,
html-keyboard-response,29,34114,null,"<div style=""font-size:42px;"">TIRED</div><img id = ""stim"" ><div class = red_square id = ""topsquare"" ></div>",null,practice,word_square,TIRED,prac_response,0,Top,none,true,,,,,,,
html-keyboard-response,30,34421,null,"<div style=""font-size:42px;"">TIRED</div>",null,,word,TIRED,,,,,,,,,,,,
html-keyboard-response,31,35928,null,"",null,,word,TIRED,,,,,,,,,,,,
html-keyboard-response,32,36149,null,"<div style=""font-size:42px;"">ENTERTAINING</div><img id = ""stim"" ><div class = red_square id = ""bottomsquare"" ></div>",null,practice,word_square,ENTERTAINING,prac_response,0,Bottom,none,true,,,,,,,
html-keyboard-response,33,36457,null,"<div style=""font-size:42px;"">ENTERTAINING</div>",null,,word,ENTERTAINING,,,,,,,,,,,,
html-keyboard-response,34,37967,null,"",null,,word,ENTERTAINING,,,,,,,,,,,,
html-keyboard-response,35,38178,null,"<div style=""font-size:42px;"">GRATEFUL</div><img id = ""stim"" ><div class = green_square id = ""bottomsquare"" ></div>",null,practice,word_square,GRATEFUL,prac_response,1,Bottom,32,true,,,,,,,
html-keyboard-response,36,38484,211.5,"<div style=""font-size:42px;"">GRATEFUL</div>",32,,word,GRATEFUL,,,,,,,,,,,,
html-keyboard-response,37,40003,null,"",null,,word,GRATEFUL,,,,,,,,,,,,
html-keyboard-response,38,40221,null,"<div style=""font-size:42px;"">LOUD</div><img id = ""stim"" ><div class = red_square id = ""topsquare"" ></div>",null,practice,word_square,LOUD,prac_response,0,Top,none,true,,,,,,,
html-keyboard-response,39,40534,null,"<div style=""font-size:42px;"">LOUD</div>",null,,word,LOUD,,,,,,,,,,,,
html-keyboard-response,40,42041,null,"",null,,word,LOUD,,,,,,,,,,,,
html-keyboard-response,41,42259,null,"<div style=""font-size:42px;"">SMART</div><img id = ""stim"" ><div class = green_square id = ""topsquare"" ></div>",null,practice,word_square,SMART,prac_response,1,Top,32,true,,,,,,,
html-keyboard-response,42,42574,172.19999998807907,"<div style=""font-size:42px;"">SMART</div>",32,,word,SMART,,,,,,,,,,,,
html-keyboard-response,43,44090,null,"",null,,word,SMART,,,,,,,,,,,,
html-keyboard-response,44,44309,null,"<div style=""font-size:42px;"">SMOOTH</div><img id = ""stim"" ><div class = green_square id = ""bottomsquare"" ></div>",null,practice,word_square,SMOOTH,prac_response,1,Bottom,32,true,,,,,,,
html-keyboard-response,45,44622,288.39999997615814,"<div style=""font-size:42px;"">SMOOTH</div>",32,,word,SMOOTH,,,,,,,,,,,,
html-keyboard-response,46,46129,null,"",null,,word,SMOOTH,,,,,,,,,,,,
html-keyboard-response,47,46389,null,"<div style=""font-size:42px;"">DISHONEST</div><img id = ""stim"" ><div class = red_square id = ""bottomsquare"" ></div>",null,practice,word_square,DISHONEST,prac_response,0,Bottom,none,true,,,,,,,
html-keyboard-response,48,46706,null,"<div style=""font-size:42px;"">DISHONEST</div>",null,,word,DISHONEST,,,,,,,,,,,,
html-keyboard-response,49,48224,null,"",null,,word,DISHONEST,,,,,,,,,,,,
html-keyboard-response,50,48436,null,"<div style=""font-size:42px;"">WEALTHY</div><img id = ""stim"" ><div class = green_square id = ""topsquare"" ></div>",null,practice,word_square,WEALTHY,prac_response,1,Top,32,true,,,,,,,
html-keyboard-response,51,48745,265.7000000476837,"<div style=""font-size:42px;"">WEALTHY</div>",32,,word,WEALTHY,,,,,,,,,,,,
html-keyboard-response,52,50261,null,"",null,,word,WEALTHY,,,,,,,,,,,,
html-keyboard-response,53,50480,null,"<div style=""font-size:42px;"">BEAUTIFUL</div><img id = ""stim"" ><div class = red_square id = ""topsquare"" ></div>",null,practice,word_square,BEAUTIFUL,prac_response,0,Top,none,true,,,,,,,
html-keyboard-response,54,50788,null,"<div style=""font-size:42px;"">BEAUTIFUL</div>",null,,word,BEAUTIFUL,,,,,,,,,,,,
html-keyboard-response,55,52300,null,"",null,,word,BEAUTIFUL,,,,,,,,,,,,
html-keyboard-response,56,58262,5953.899999976158,"<p> Good job! You responded correctly to 100% of the trials. </p>
                  <p>Be sure to only press the spacebar if you see a GREEN square, and please keep your accuracy above 80%.</p>
                  <p>We're going to try once more to make sure you understand the task. press any key to continue. </p>",32,,,,,,,,,,,,,,,
html-keyboard-response,57,65401,7135.699999988079,"<p>You will see a list of words and colored squares in the following task.<p><p>Press the spacebar whenever you see a GREEN square.<p><p>Do not press a key if the square is RED<p><p>Press the spacebar to continue.</p>",32,,,,,,,,,,,,,,,
html-keyboard-response,58,67917,null,"<div style=""font-size:60px;"">+</div>",null,,,,,,,,,,,,,,,
html-keyboard-response,59,68124,null,"<div style=""font-size:42px;"">HAPPY</div><img id = ""stim"" ><div class = red_square id = ""bottomsquare"" ></div>",null,practice2,word_square,HAPPY,prac_response,0,Bottom,none,true,,,,,,,
html-keyboard-response,60,68431,null,"<div style=""font-size:42px;"">HAPPY</div>",null,,word,HAPPY,,,,,,,,,,,,
html-keyboard-response,61,69951,null,"",null,,word,HAPPY,,,,,,,,,,,,
html-keyboard-response,62,70157,null,"<div style=""font-size:42px;"">COLD</div><img id = ""stim"" ><div class = green_square id = ""bottomsquare"" ></div>",null,practice2,word_square,,prac_response,1,Bottom,32,true,,,,,,,
html-keyboard-response,63,70468,154.89999997615814,"<div style=""font-size:42px;"">COLD</div>",32,,word,COLD,,,,,,,,,,,,
html-keyboard-response,64,71988,null,"",null,,word,COLD,,,,,,,,,,,,
html-keyboard-response,65,72205,null,"<div style=""font-size:42px;"">HEAVY</div><img id = ""stim"" ><div class = green_square id = ""topsquare"" ></div>",null,practice2,word_square,,prac_response,1,Top,32,true,,,,,,,
html-keyboard-response,66,72513,null,"<div style=""font-size:42px;"">HEAVY</div>",null,,word,HEAVY,,,,,,,,,,,,
html-keyboard-response,67,74023,23.19999998807907,"",32,,word,HEAVY,,,,,,,,,,,,
html-keyboard-response,68,74236,null,"<div style=""font-size:42px;"">FUNNY</div><img id = ""stim"" ><div class = red_square id = ""topsquare"" ></div>",null,practice2,word_square,,prac_response,0,Top,none,true,,,,,,,
html-keyboard-response,69,74544,null,"<div style=""font-size:42px;"">FUNNY</div>",null,,word,FUNNY,,,,,,,,,,,,
html-keyboard-response,70,76061,null,"",null,,word,FUNNY,,,,,,,,,,,,
html-keyboard-response,71,76279,null,"<div style=""font-size:42px;"">SCARY</div><img id = ""stim"" ><div class = green_square id = ""bottomsquare"" ></div>",null,practice2,word_square,,prac_response,1,Bottom,32,true,,,,,,,
html-keyboard-response,72,76588,null,"<div style=""font-size:42px;"">SCARY</div>",null,,word,SCARY,,,,,,,,,,,,
html-keyboard-response,73,78095,21.30000001192093,"",32,,word,SCARY,,,,,,,,,,,,
html-keyboard-response,74,78313,null,"<div style=""font-size:42px;"">PEACEFUL</div><img id = ""stim"" ><div class = green_square id = ""topsquare"" ></div>",null,practice2,word_square,,prac_response,1,Top,32,true,,,,,,,
html-keyboard-response,75,78631,313.80000001192093,"<div style=""font-size:42px;"">PEACEFUL</div>",32,,word,PEACEFUL,,,,,,,,,,,,
html-keyboard-response,76,80150,null,"",null,,word,PEACEFUL,,,,,,,,,,,,
html-keyboard-response,77,80368,null,"<div style=""font-size:42px;"">LITTLE</div><img id = ""stim"" ><div class = red_square id = ""bottomsquare"" ></div>",null,practice2,word_square,LITTLE,prac_response,0,Bottom,none,true,,,,,,,
html-keyboard-response,78,80683,null,"<div style=""font-size:42px;"">LITTLE</div>",null,,word,LITTLE,,,,,,,,,,,,
html-keyboard-response,79,82199,null,"",null,,word,LITTLE,,,,,,,,,,,,
html-keyboard-response,80,82414,null,"<div style=""font-size:42px;"">TIRED</div><img id = ""stim"" ><div class = red_square id = ""topsquare"" ></div>",null,practice2,word_square,,prac_response,0,Top,none,true,,,,,,,
html-keyboard-response,81,82735,null,"<div style=""font-size:42px;"">TIRED</div>",null,,word,TIRED,,,,,,,,,,,,
html-keyboard-response,82,84262,null,"",null,,word,TIRED,,,,,,,,,,,,
html-keyboard-response,83,84472,null,"<div style=""font-size:42px;"">ENTERTAINING</div><img id = ""stim"" ><div class = red_square id = ""bottomsquare"" ></div>",null,practice2,word_square,ENTERTAINING,prac_response,0,Bottom,none,true,,,,,,,
html-keyboard-response,84,84786,null,"<div style=""font-size:42px;"">ENTERTAINING</div>",null,,word,ENTERTAINING,,,,,,,,,,,,
html-keyboard-response,85,86302,null,"",null,,word,ENTERTAINING,,,,,,,,,,,,
html-keyboard-response,86,86510,null,"<div style=""font-size:42px;"">GRATEFUL</div><img id = ""stim"" ><div class = green_square id = ""bottomsquare"" ></div>",null,practice2,word_square,,prac_response,1,Bottom,32,true,,,,,,,
html-keyboard-response,87,86819,null,"<div style=""font-size:42px;"">GRATEFUL</div>",null,,word,GRATEFUL,,,,,,,,,,,,
html-keyboard-response,88,88338,37.60000002384186,"",32,,word,GRATEFUL,,,,,,,,,,,,
html-keyboard-response,89,88543,null,"<div style=""font-size:42px;"">LOUD</div><img id = ""stim"" ><div class = red_square id = ""topsquare"" ></div>",null,practice2,word_square,,prac_response,0,Top,none,true,,,,,,,
html-keyboard-response,90,88860,null,"<div style=""font-size:42px;"">LOUD</div>",null,,word,LOUD,,,,,,,,,,,,
html-keyboard-response,91,90378,null,"",null,,word,LOUD,,,,,,,,,,,,
html-keyboard-response,92,90596,null,"<div style=""font-size:42px;"">SMART</div><img id = ""stim"" ><div class = green_square id = ""topsquare"" ></div>",null,practice2,word_square,,prac_response,1,Top,32,true,,,,,,,
html-keyboard-response,93,90907,191.30000001192093,"<div style=""font-size:42px;"">SMART</div>",32,,word,SMART,,,,,,,,,,,,
html-keyboard-response,94,92426,null,"",null,,word,SMART,,,,,,,,,,,,
html-keyboard-response,95,92643,null,"<div style=""font-size:42px;"">SMOOTH</div><img id = ""stim"" ><div class = green_square id = ""bottomsquare"" ></div>",null,practice2,word_square,,prac_response,1,Bottom,32,true,,,,,,,
html-keyboard-response,96,92961,178.0999999642372,"<div style=""font-size:42px;"">SMOOTH</div>",32,,word,SMOOTH,,,,,,,,,,,,
html-keyboard-response,97,94466,null,"",null,,word,SMOOTH,,,,,,,,,,,,
html-keyboard-response,98,94681,null,"<div style=""font-size:42px;"">DISHONEST</div><img id = ""stim"" ><div class = red_square id = ""bottomsquare"" ></div>",null,practice2,word_square,DISHONEST,prac_response,0,Bottom,none,true,,,,,,,
html-keyboard-response,99,94996,null,"<div style=""font-size:42px;"">DISHONEST</div>",null,,word,DISHONEST,,,,,,,,,,,,
html-keyboard-response,100,96502,null,"",null,,word,DISHONEST,,,,,,,,,,,,
html-keyboard-response,101,96708,null,"<div style=""font-size:42px;"">WEALTHY</div><img id = ""stim"" ><div class = green_square id = ""topsquare"" ></div>",null,practice2,word_square,,prac_response,1,Top,32,true,,,,,,,
html-keyboard-response,102,97022,176.5,"<div style=""font-size:42px;"">WEALTHY</div>",32,,word,WEALTHY,,,,,,,,,,,,
html-keyboard-response,103,98536,null,"",null,,word,WEALTHY,,,,,,,,,,,,
html-keyboard-response,104,98755,null,"<div style=""font-size:42px;"">BEAUTIFUL</div><img id = ""stim"" ><div class = red_square id = ""topsquare"" ></div>",null,practice2,word_square,,prac_response,0,Top,none,false,,,,,,,
html-keyboard-response,105,99063,null,"<div style=""font-size:42px;"">BEAUTIFUL</div>",null,,word,BEAUTIFUL,,,,,,,,,,,,
html-keyboard-response,106,100575,null,"",null,,word,BEAUTIFUL,,,,,,,,,,,,
html-keyboard-response,107,104499,3920.199999988079,"<p> Good job! You responded correctly to 100% of the trials. </p>
                    <p>Be sure to only press the spacebar if you see a GREEN square, and please keep your accuracy above 80%.</p>
                    <p>Press any key to begin the math and recall sections. Thank you! </p>",32,,,,,,,,,,,,,,,
call-function,108,104501,,"",,,,,,,,,,,,,,,,
html-keyboard-response,109,104606,null,"",null,,,,,,,,,,,,,,,
math-period,110,110968,11078.100000023842,"",,,,,,,,,,,4,,,,,
html-keyboard-response,111,111083,null,"",null,,,,,,,,,,,,,,,
math-period,112,114182,5316.799999952316,"",,,,,,,,,,,1,,,,,
html-keyboard-response,113,114296,null,"",null,,,,,,,,,,,,,,,
math-period,114,116558,3615.099999964237,"",,,,,,,,,,,3,,,,,
html-keyboard-response,115,116678,null,"",null,,,,,,,,,,,,,,,
math-period,116,120036,6037.100000023842,"",,,,,,,,,,,4,,,,,
html-keyboard-response,117,120143,null,"",null,,,,,,,,,,,,,,,
math-period,118,127454,13817.5,"",,,,,,,,,,,3,,,,,
html-keyboard-response,119,127558,null,"",null,,,,,,,,,,,,,,,
math-period,120,128517,null,"",,,,,,,,,,,,,,,,
html-keyboard-response,121,129524,null,"Recall Period!",null,,,,,,,,,,,,,,,
call-function,122,129526,,"",,,,,,,,,,,,,,,,
html-keyboard-response,123,129638,null,"",null,,,,,,,,,,,,,,,
recall-period,124,136070,52023.39999991655,"",,,,,,,,,,,beautiful,,,,,
html-keyboard-response,125,136177,null,"",null,,,,,,,,,,,,,,,
recall-period,126,138520,8378.5,"",,,,,,,,,,,happy,,,,,
html-keyboard-response,127,138635,null,"",null,,,,,,,,,,,,,,,
recall-period,128,140300,7316.699999928474,"",,,,,,,,,,,little,,,,,
html-keyboard-response,129,140413,null,"",null,,,,,,,,,,,,,,,
recall-period,130,142165,7169.899999976158,"",,,,,,,,,,,tired,,,,,
html-keyboard-response,131,142280,null,"",null,,,,,,,,,,,,,,,
recall-period,132,144105,7170.800000071526,"",,,,,,,,,,,smooth,,,,,
html-keyboard-response,133,144227,null,"",null,,,,,,,,,,,,,,,
recall-period,134,148582,24802.599999785423,"",,,,,,,,,,,entertaining,,,,,
html-keyboard-response,135,148690,null,"",null,,,,,,,,,,,,,,,
recall-period,136,153043,21538.199999928474,"",,,,,,,,,,,grateful,,,,,
html-keyboard-response,137,153149,null,"",null,,,,,,,,,,,,,,,
recall-period,138,171377,136606.9999998212,"",,,,,,,,,,,wealthy,,,,,
html-keyboard-response,139,171494,null,"",null,,,,,,,,,,,,,,,
recall-period,140,195689,139457.90000003576,"",,,,,,,,,,,funny,,,,,
html-keyboard-response,141,195802,null,"",null,,,,,,,,,,,,,,,
recall-period,142,204533,null,"",,,,,,,,,,,,,,,,
html-keyboard-response,143,205049,null,"Time's Up!",null,,,,,,,,,,,,,,,
html-keyboard-response,144,210457,5403.900000035763,"<p>We will now begin the experiment!<p><p>Please try to remember all words from each list.<p><p>Press the spacebar whenever you see a GREEN square.<p><p><p><p>Press the spacebar to begin.</p>",32,,,,,,,,,,,,,,,
html-keyboard-response,145,213182,2212.5,"<div style=""font-size:48px;"">Press any key to begin list 1 of 16 </div>",77,,,,,,,,,,,,,,,
html-keyboard-response,146,215713,null,"<div style=""font-size:60px;"">+</div>",null,,,,,,,,,,,,,,,
html-keyboard-response,147,215922,null,"<div style=""font-size:42px;"">ALMOND</div><img id = ""stim"" ><div class = green_square id = topsquare></div>",null,encoding,word_square,,,1,topsquare,32,true,,,ALMOND,0,,,
html-keyboard-response,148,216227,253.29999995231628,"<div style=""font-size:42px;"">ALMOND</div>",32,,word,ALMOND,,,,,,,,,,,,
html-keyboard-response,149,217739,null,"",null,,word,ALMOND,,,,,,,,,,,,
html-keyboard-response,150,217959,null,"<div style=""font-size:42px;"">RIFLE</div><img id = ""stim"" ><div class = red_square id = bottomsquare></div>",null,encoding,word_square,,,0,bottomsquare,none,true,,,RIFLE,0,,,
html-keyboard-response,151,218277,null,"<div style=""font-size:42px;"">RIFLE</div>",null,,word,RIFLE,,,,,,,,,,,,
html-keyboard-response,152,219789,null,"",null,,word,RIFLE,,,,,,,,,,,,
html-keyboard-response,153,219995,null,"<div style=""font-size:42px;"">JOKER</div><img id = ""stim"" ><div class = red_square id = topsquare></div>",null,encoding,word_square,,,0,topsquare,none,true,,,JOKER,0,,,
html-keyboard-response,154,220311,null,"<div style=""font-size:42px;"">JOKER</div>",null,,word,JOKER,,,,,,,,,,,,
html-keyboard-response,155,221827,null,"",null,,word,JOKER,,,,,,,,,,,,
html-keyboard-response,156,222047,null,"<div style=""font-size:42px;"">TUBA</div><img id = ""stim"" ><div class = green_square id = bottomsquare></div>",null,encoding,word_square,,,1,bottomsquare,32,true,,,TUBA,0,,,
html-keyboard-response,157,222363,283.0999999642372,"<div style=""font-size:42px;"">TUBA</div>",32,,word,TUBA,,,,,,,,,,,,
html-keyboard-response,158,223879,null,"",null,,word,TUBA,,,,,,,,,,,,
html-keyboard-response,159,224086,null,"<div style=""font-size:42px;"">RECORD</div><img id = ""stim"" ><div class = green_square id = topsquare></div>",null,encoding,word_square,,,1,topsquare,32,true,,,RECORD,0,,,
html-keyboard-response,160,224397,228.39999997615814,"<div style=""font-size:42px;"">RECORD</div>",32,,word,RECORD,,,,,,,,,,,,
html-keyboard-response,161,225913,null,"",null,,word,RECORD,,,,,,,,,,,,
html-keyboard-response,162,226128,null,"<div style=""font-size:42px;"">GRAVEL</div><img id = ""stim"" ><div class = red_square id = bottomsquare></div>",null,encoding,word_square,,,0,bottomsquare,none,true,,,GRAVEL,0,,,
html-keyboard-response,163,226449,null,"<div style=""font-size:42px;"">GRAVEL</div>",null,,word,GRAVEL,,,,,,,,,,,,
html-keyboard-response,164,227964,null,"",null,,word,GRAVEL,,,,,,,,,,,,
html-keyboard-response,165,228177,null,"<div style=""font-size:42px;"">BELT</div><img id = ""stim"" ><div class = green_square id = bottomsquare></div>",null,encoding,word_square,,,1,bottomsquare,32,true,,,BELT,0,,,
html-keyboard-response,166,228497,null,"<div style=""font-size:42px;"">BELT</div>",null,,word,BELT,,,,,,,,,,,,
html-keyboard-response,167,230003,98,"",32,,word,BELT,,,,,,,,,,,,
html-keyboard-response,168,230210,null,"<div style=""font-size:42px;"">MAGNET</div><img id = ""stim"" ><div class = red_square id = topsquare></div>",null,encoding,word_square,,,0,topsquare,none,true,,,MAGNET,0,,,
html-keyboard-response,169,230520,null,"<div style=""font-size:42px;"">MAGNET</div>",null,,word,MAGNET,,,,,,,,,,,,
html-keyboard-response,170,232039,null,"",null,,word,MAGNET,,,,,,,,,,,,
html-keyboard-response,171,232259,null,"<div style=""font-size:42px;"">EXPERT</div><img id = ""stim"" ><div class = green_square id = topsquare></div>",null,encoding,word_square,,,1,topsquare,32,true,,,EXPERT,0,,,
html-keyboard-response,172,232578,144.19999998807907,"<div style=""font-size:42px;"">EXPERT</div>",32,,word,EXPERT,,,,,,,,,,,,
html-keyboard-response,173,234088,null,"",null,,word,EXPERT,,,,,,,,,,,,
html-keyboard-response,174,234308,null,"<div style=""font-size:42px;"">TEACHER</div><img id = ""stim"" ><div class = red_square id = bottomsquare></div>",null,encoding,word_square,,,0,bottomsquare,none,true,,,TEACHER,0,,,
html-keyboard-response,175,234625,null,"<div style=""font-size:42px;"">TEACHER</div>",null,,word,TEACHER,,,,,,,,,,,,
html-keyboard-response,176,236141,null,"",null,,word,TEACHER,,,,,,,,,,,,
html-keyboard-response,177,236346,null,"<div style=""font-size:42px;"">INMATE</div><img id = ""stim"" ><div class = red_square id = topsquare></div>",null,encoding,word_square,,,0,topsquare,none,true,,,INMATE,0,,,
html-keyboard-response,178,236655,null,"<div style=""font-size:42px;"">INMATE</div>",null,,word,INMATE,,,,,,,,,,,,
html-keyboard-response,179,238160,null,"",null,,word,INMATE,,,,,,,,,,,,
html-keyboard-response,180,238368,null,"<div style=""font-size:42px;"">FRIES</div><img id = ""stim"" ><div class = green_square id = bottomsquare></div>",null,encoding,word_square,,,1,bottomsquare,32,true,,,FRIES,0,,,
html-keyboard-response,181,238676,302.80000001192093,"<div style=""font-size:42px;"">FRIES</div>",32,,word,FRIES,,,,,,,,,,,,
html-keyboard-response,182,240180,null,"",null,,word,FRIES,,,,,,,,,,,,
html-keyboard-response,183,240397,null,"<div style=""font-size:42px;"">CLOTHES</div><img id = ""stim"" ><div class = green_square id = topsquare></div>",null,encoding,word_square,,,1,topsquare,32,true,,,CLOTHES,0,,,
html-keyboard-response,184,240714,213.60000002384186,"<div style=""font-size:42px;"">CLOTHES</div>",32,,word,CLOTHES,,,,,,,,,,,,
html-keyboard-response,185,242230,null,"",null,,word,CLOTHES,,,,,,,,,,,,
html-keyboard-response,186,242441,null,"<div style=""font-size:42px;"">PISTOL</div><img id = ""stim"" ><div class = green_square id = bottomsquare></div>",null,encoding,word_square,,,1,bottomsquare,32,true,,,PISTOL,0,,,
html-keyboard-response,187,242757,211.80000001192093,"<div style=""font-size:42px;"">PISTOL</div>",32,,word,PISTOL,,,,,,,,,,,,
html-keyboard-response,188,244273,null,"",null,,word,PISTOL,,,,,,,,,,,,
html-keyboard-response,189,244491,null,"<div style=""font-size:42px;"">DIAMOND</div><img id = ""stim"" ><div class = red_square id = bottomsquare></div>",null,encoding,word_square,,,0,bottomsquare,none,true,,,DIAMOND,0,,,
html-keyboard-response,190,244799,null,"<div style=""font-size:42px;"">DIAMOND</div>",null,,word,DIAMOND,,,,,,,,,,,,
html-keyboard-response,191,246306,null,"",null,,word,DIAMOND,,,,,,,,,,,,
html-keyboard-response,192,246513,null,"<div style=""font-size:42px;"">AIRPORT</div><img id = ""stim"" ><div class = red_square id = topsquare></div>",null,encoding,word_square,,,0,topsquare,none,true,,,AIRPORT,0,,,
html-keyboard-response,193,246828,null,"<div style=""font-size:42px;"">AIRPORT</div>",null,,word,AIRPORT,,,,,,,,,,,,
html-keyboard-response,194,248342,null,"",null,,word,AIRPORT,,,,,,,,,,,,
call-function,195,248345,,"",,,,,,,,,,,,,,,,
html-keyboard-response,196,248454,null,"",null,,,,,,,,,,,,,,,
math-period,197,252389,6921.699999988079,"",,,,,,,,,,,1,,,,,
html-keyboard-response,198,252508,null,"",null,,,,,,,,,,,,,,,
math-period,199,255125,4493.399999976158,"",,,,,,,,,,,4,,,,,
html-keyboard-response,200,255232,null,"",null,,,,,,,,,,,,,,,
math-period,201,258530,6041.900000095367,"",,,,,,,,,,,0,,,,,
html-keyboard-response,202,258637,null,"",null,,,,,,,,,,,,,,,
math-period,203,261129,4171.199999988079,"",,,,,,,,,,,3,,,,,
html-keyboard-response,204,261246,null,"",null,,,,,,,,,,,,,,,
math-period,205,263582,4128.900000035763,"",,,,,,,,,,,5,,,,,
html-keyboard-response,206,263687,null,"",null,,,,,,,,,,,,,,,
math-period,207,266085,4203,"",,,,,,,,,,,1,,,,,
html-keyboard-response,208,266202,null,"",null,,,,,,,,,,,,,,,
math-period,209,268329,3775.5000000596046,"",,,,,,,,,,,6,,,,,
html-keyboard-response,210,268434,null,"",null,,,,,,,,,,,,,,,
math-period,211,270530,3733.2999999523163,"",,,,,,,,,,,4,,,,,
html-keyboard-response,212,270638,null,"",null,,,,,,,,,,,,,,,
math-period,213,272357,null,"",,,,,,,,,,,,,,,,
html-keyboard-response,214,273376,null,"Recall Period!",null,,,,,,,,,,,,,,,
call-function,215,273379,,"",,,,,,,,,,,,,,,,
html-keyboard-response,216,273508,null,"",null,,,,,,,,,,,,,,,
recall-period,217,279987,39510.20000010729,"",,,,,,,,,,,almond,,,,,
html-keyboard-response,218,280096,null,"",null,,,,,,,,,,,,,,,
recall-period,219,282143,8893.900000095367,"",,,,,,,,,,,inmate,,,,,
html-keyboard-response,220,282257,null,"",null,,,,,,,,,,,,,,,
recall-period,221,284347,8718.199999928474,"",,,,,,,,,,,expert,,,,,
html-keyboard-response,222,284458,null,"",null,,,,,,,,,,,,,,,
recall-period,223,286549,10534.000000238419,"",,,,,,,,,,,teacher,,,,,
html-keyboard-response,224,286663,null,"",null,,,,,,,,,,,,,,,
recall-period,225,296882,74414.69999974966,"",,,,,,,,,,,clothes,,,,,
html-keyboard-response,226,296987,null,"",null,,,,,,,,,,,,,,,
recall-period,227,298455,5958.700000166893,"",,,,,,,,,,,fries,,,,,
html-keyboard-response,228,298571,null,"",null,,,,,,,,,,,,,,,
recall-period,229,348388,null,"",,,,,,,,,,,,,,,,
html-keyboard-response,230,348904,null,"Time's Up!",null,,,,,,,,,,,,,,,
html-keyboard-response,231,352732,3823.5,"<p> Good job! You have responded correctly to 100% of the trials. </p>
                      <p>Be sure to only press the spacebar if you see a GREEN square, and please keep your accuracy above 80%.</p>
                      <p> Press any key to continue the experiment. </p>",32,,,,,,,,,,,,,,,
html-keyboard-response,232,353506,770.2999999523163,"<div style=""font-size:48px;"">Press any key to begin list 2 of 16 </div>",32,,,,,,,,,,,,,,,
html-keyboard-response,233,356033,null,"<div style=""font-size:60px;"">+</div>",null,,,,,,,,,,,,,,,
html-keyboard-response,234,356250,null,"<div style=""font-size:42px;"">RAILROAD</div><img id = ""stim"" ><div class = red_square id = topsquare></div>",null,encoding,word_square,,,0,topsquare,none,true,,,RAILROAD,1,,,
html-keyboard-response,235,356558,null,"<div style=""font-size:42px;"">RAILROAD</div>",null,,word,RAILROAD,,,,,,,,,,,,
html-keyboard-response,236,358067,null,"",null,,word,RAILROAD,,,,,,,,,,,,
html-keyboard-response,237,358276,null,"<div style=""font-size:42px;"">TUTU</div><img id = ""stim"" ><div class = red_square id = bottomsquare></div>",null,encoding,word_square,,,0,bottomsquare,none,true,,,TUTU,1,,,
html-keyboard-response,238,358585,null,"<div style=""font-size:42px;"">TUTU</div>",null,,word,TUTU,,,,,,,,,,,,
html-keyboard-response,239,360091,null,"",null,,word,TUTU,,,,,,,,,,,,
html-keyboard-response,240,360307,null,"<div style=""font-size:42px;"">DRESS</div><img id = ""stim"" ><div class = green_square id = bottomsquare></div>",null,encoding,word_square,,,1,bottomsquare,32,true,,,DRESS,1,,,
html-keyboard-response,241,360623,256.80000001192093,"<div style=""font-size:42px;"">DRESS</div>",32,,word,DRESS,,,,,,,,,,,,
html-keyboard-response,242,362143,null,"",null,,word,DRESS,,,,,,,,,,,,
html-keyboard-response,243,362357,null,"<div style=""font-size:42px;"">PRIMATE</div><img id = ""stim"" ><div class = green_square id = topsquare></div>",null,encoding,word_square,,,1,topsquare,32,true,,,PRIMATE,1,,,
html-keyboard-response,244,362769,408.2000000476837,"<div style=""font-size:42px;"">PRIMATE</div>",32,,word,PRIMATE,,,,,,,,,,,,
html-keyboard-response,245,364285,null,"",null,,word,PRIMATE,,,,,,,,,,,,
html-keyboard-response,246,364491,null,"<div style=""font-size:42px;"">RACKET</div><img id = ""stim"" ><div class = green_square id = bottomsquare></div>",null,encoding,word_square,,,1,bottomsquare,32,true,,,RACKET,1,,,
html-keyboard-response,247,364803,227.69999998807907,"<div style=""font-size:42px;"">RACKET</div>",32,,word,RACKET,,,,,,,,,,,,
html-keyboard-response,248,366322,null,"",null,,word,RACKET,,,,,,,,,,,,
html-keyboard-response,249,366540,null,"<div style=""font-size:42px;"">STAIRS</div><img id = ""stim"" ><div class = red_square id = topsquare></div>",null,encoding,word_square,,,0,topsquare,none,true,,,STAIRS,1,,,
html-keyboard-response,250,366854,null,"<div style=""font-size:42px;"">STAIRS</div>",null,,word,STAIRS,,,,,,,,,,,,
html-keyboard-response,251,368373,null,"",null,,word,STAIRS,,,,,,,,,,,,
html-keyboard-response,252,368578,null,"<div style=""font-size:42px;"">MONEY</div><img id = ""stim"" ><div class = red_square id = bottomsquare></div>",null,encoding,word_square,,,0,bottomsquare,none,true,,,MONEY,1,,,
html-keyboard-response,253,368887,null,"<div style=""font-size:42px;"">MONEY</div>",null,,word,MONEY,,,,,,,,,,,,
html-keyboard-response,254,370408,null,"",null,,word,MONEY,,,,,,,,,,,,
html-keyboard-response,255,370614,null,"<div style=""font-size:42px;"">STALLION</div><img id = ""stim"" ><div class = green_square id = topsquare></div>",null,encoding,word_square,,,1,topsquare,32,true,,,STALLION,1,,,
html-keyboard-response,256,370922,null,"<div style=""font-size:42px;"">STALLION</div>",null,,word,STALLION,,,,,,,,,,,,
html-keyboard-response,257,372428,15.399999976158142,"",32,,word,STALLION,,,,,,,,,,,,
html-keyboard-response,258,372637,null,"<div style=""font-size:42px;"">MARROW</div><img id = ""stim"" ><div class = red_square id = topsquare></div>",null,encoding,word_square,,,0,topsquare,none,true,,,MARROW,1,,,
html-keyboard-response,259,372954,null,"<div style=""font-size:42px;"">MARROW</div>",null,,word,MARROW,,,,,,,,,,,,
html-keyboard-response,260,374470,null,"",null,,word,MARROW,,,,,,,,,,,,
html-keyboard-response,261,374689,null,"<div style=""font-size:42px;"">BACKBONE</div><img id = ""stim"" ><div class = green_square id = bottomsquare></div>",null,encoding,word_square,,,1,bottomsquare,32,true,,,BACKBONE,1,,,
html-keyboard-response,262,375005,204.39999997615814,"<div style=""font-size:42px;"">BACKBONE</div>",32,,word,BACKBONE,,,,,,,,,,,,
html-keyboard-response,263,376518,null,"",null,,word,BACKBONE,,,,,,,,,,,,
html-keyboard-response,264,376735,null,"<div style=""font-size:42px;"">POND</div><img id = ""stim"" ><div class = red_square id = bottomsquare></div>",null,encoding,word_square,,,0,bottomsquare,none,true,,,POND,1,,,
html-keyboard-response,265,377055,null,"<div style=""font-size:42px;"">POND</div>",null,,word,POND,,,,,,,,,,,,
html-keyboard-response,266,378571,null,"",null,,word,POND,,,,,,,,,,,,
html-keyboard-response,267,378788,null,"<div style=""font-size:42px;"">JUGGLER</div><img id = ""stim"" ><div class = green_square id = topsquare></div>",null,encoding,word_square,,,1,topsquare,32,true,,,JUGGLER,1,,,
html-keyboard-response,268,379102,null,"<div style=""font-size:42px;"">JUGGLER</div>",null,,word,JUGGLER,,,,,,,,,,,,
html-keyboard-response,269,380610,82.10000002384186,"",32,,word,JUGGLER,,,,,,,,,,,,
html-keyboard-response,270,380817,null,"<div style=""font-size:42px;"">GYMNAST</div><img id = ""stim"" ><div class = green_square id = bottomsquare></div>",null,encoding,word_square,,,1,bottomsquare,32,true,,,GYMNAST,1,,,
html-keyboard-response,271,381123,281.9000000357628,"<div style=""font-size:42px;"">GYMNAST</div>",32,,word,GYMNAST,,,,,,,,,,,,
html-keyboard-response,272,382630,null,"",null,,word,GYMNAST,,,,,,,,,,,,
html-keyboard-response,273,382848,null,"<div style=""font-size:42px;"">COMET</div><img id = ""stim"" ><div class = red_square id = topsquare></div>",null,encoding,word_square,,,0,topsquare,none,true,,,COMET,1,,,
html-keyboard-response,274,383166,null,"<div style=""font-size:42px;"">COMET</div>",null,,word,COMET,,,,,,,,,,,,
html-keyboard-response,275,384681,null,"",null,,word,COMET,,,,,,,,,,,,
html-keyboard-response,276,384902,null,"<div style=""font-size:42px;"">GIRL</div><img id = ""stim"" ><div class = red_square id = bottomsquare></div>",null,encoding,word_square,,,0,bottomsquare,none,true,,,GIRL,1,,,
html-keyboard-response,277,385212,null,"<div style=""font-size:42px;"">GIRL</div>",null,,word,GIRL,,,,,,,,,,,,
html-keyboard-response,278,386730,null,"",null,,word,GIRL,,,,,,,,,,,,
html-keyboard-response,279,386954,null,"<div style=""font-size:42px;"">MAPLE</div><img id = ""stim"" ><div class = green_square id = topsquare></div>",null,encoding,word_square,,,1,topsquare,32,true,,,MAPLE,1,,,
html-keyboard-response,280,387270,null,"<div style=""font-size:42px;"">MAPLE</div>",null,,word,MAPLE,,,,,,,,,,,,
html-keyboard-response,281,388785,110.10000002384186,"",32,,word,MAPLE,,,,,,,,,,,,
call-function,282,388787,,"",,,,,,,,,,,,,,,,
html-keyboard-response,283,388895,null,"",null,,,,,,,,,,,,,,,
math-period,284,391468,4469.200000047684,"",,,,,,,,,,,3,,,,,
html-keyboard-response,285,391583,null,"",null,,,,,,,,,,,,,,,
math-period,286,394078,4397.500000059605,"",,,,,,,,,,,2,,,,,
html-keyboard-response,287,394193,null,"",null,,,,,,,,,,,,,,,
math-period,288,397766,6467.600000023842,"",,,,,,,,,,,2,,,,,
html-keyboard-response,289,397872,null,"",null,,,,,,,,,,,,,,,
math-period,290,401025,5512.800000071526,"",,,,,,,,,,,1,,,,,
html-keyboard-response,291,401131,null,"",null,,,,,,,,,,,,,,,
math-period,292,405428,8099.300000011921,"",,,,,,,,,,,3,,,,,
html-keyboard-response,293,405547,null,"",null,,,,,,,,,,,,,,,
math-period,294,407129,2735.2000000476837,"",,,,,,,,,,,4,,,,,
html-keyboard-response,295,407239,null,"",null,,,,,,,,,,,,,,,
math-period,296,410427,5706.999999940395,"",,,,,,,,,,,1,,,,,
html-keyboard-response,297,410542,null,"",null,,,,,,,,,,,,,,,
math-period,298,412800,2061.699999988079,"",,,,,,,,,,,4,,,,,
html-keyboard-response,299,413818,null,"Recall Period!",null,,,,,,,,,,,,,,,
call-function,300,413820,,"",,,,,,,,,,,,,,,,
html-keyboard-response,301,413925,null,"",null,,,,,,,,,,,,,,,
recall-period,302,417035,14331.700000107288,"",,,,,,,,,,,marrow,,,,,
html-keyboard-response,303,417146,null,"",null,,,,,,,,,,,,,,,
recall-period,304,418830,7122.900000035763,"",,,,,,,,,,,maple,,,,,
html-keyboard-response,305,418946,null,"",null,,,,,,,,,,,,,,,
recall-period,306,420244,3958.5000000596046,"",,,,,,,,,,,girl,,,,,
html-keyboard-response,307,420348,null,"",null,,,,,,,,,,,,,,,
recall-period,308,421741,4266.3999999165535,"",,,,,,,,,,,tutu,,,,,
html-keyboard-response,309,421845,null,"",null,,,,,,,,,,,,,,,
recall-period,310,424405,11095.799999892712,"",,,,,,,,,,,railroad,,,,,
html-keyboard-response,311,424515,null,"",null,,,,,,,,,,,,,,,
recall-period,312,435631,85421.49999982119,"",,,,,,,,,,,backbone,,,,,
html-keyboard-response,313,435745,null,"",null,,,,,,,,,,,,,,,
recall-period,314,446442,88127.40000021458,"",,,,,,,,,,,stallion,,,,,
html-keyboard-response,315,446549,null,"",null,,,,,,,,,,,,,,,
recall-period,316,448466,6797.199999928474,"",,,,,,,,,,,pond,,,,,
html-keyboard-response,317,448594,null,"",null,,,,,,,,,,,,,,,
recall-period,318,488829,null,"",,,,,,,,,,,,,,,,
html-keyboard-response,319,489346,null,"Time's Up!",null,,,,,,,,,,,,,,,
html-keyboard-response,320,491510,2158.599999964237,"<p> Good job! You have responded correctly to 100% of the trials. </p>
                      <p>Be sure to only press the spacebar if you see a GREEN square, and please keep your accuracy above 80%.</p>
                      <p> Press any key to continue the experiment. </p>",32,,,,,,,,,,,,,,,
html-keyboard-response,321,492195,680.0999999642372,"<div style=""font-size:48px;"">Press any key to begin list 3 of 16 </div>",32,,,,,,,,,,,,,,,
html-keyboard-response,322,494715,null,"<div style=""font-size:60px;"">+</div>",null,,,,,,,,,,,,,,,
html-keyboard-response,323,494921,null,"<div style=""font-size:42px;"">LAVA</div><img id = ""stim"" ><div class = red_square id = bottomsquare></div>",null,encoding,word_square,,,0,bottomsquare,none,false,,,LAVA,2,,,
html-keyboard-response,324,495232,null,"<div style=""font-size:42px;"">LAVA</div>",null,,word,LAVA,,,,,,,,,,,,
html-keyboard-response,325,496740,195.60000002384186,"",32,,word,LAVA,,,,,,,,,,,,
html-keyboard-response,326,496957,null,"<div style=""font-size:42px;"">HOUND</div><img id = ""stim"" ><div class = green_square id = topsquare></div>",null,encoding,word_square,,,1,topsquare,32,true,,,HOUND,2,,,
html-keyboard-response,327,497268,206.30000001192093,"<div style=""font-size:42px;"">HOUND</div>",32,,word,HOUND,,,,,,,,,,,,
html-keyboard-response,328,498776,null,"",null,,word,HOUND,,,,,,,,,,,,
html-keyboard-response,329,498996,null,"<div style=""font-size:42px;"">FOSSIL</div><img id = ""stim"" ><div class = green_square id = bottomsquare></div>",null,encoding,word_square,,,1,bottomsquare,32,true,,,FOSSIL,2,,,
html-keyboard-response,330,499305,251.39999997615814,"<div style=""font-size:42px;"">FOSSIL</div>",32,,word,FOSSIL,,,,,,,,,,,,
html-keyboard-response,331,500825,null,"",null,,word,FOSSIL,,,,,,,,,,,,
html-keyboard-response,332,501031,null,"<div style=""font-size:42px;"">DUSTPAN</div><img id = ""stim"" ><div class = red_square id = topsquare></div>",null,encoding,word_square,,,0,topsquare,none,true,,,DUSTPAN,2,,,
html-keyboard-response,333,501340,null,"<div style=""font-size:42px;"">DUSTPAN</div>",null,,word,DUSTPAN,,,,,,,,,,,,
html-keyboard-response,334,502849,null,"",null,,word,DUSTPAN,,,,,,,,,,,,
html-keyboard-response,335,503066,null,"<div style=""font-size:42px;"">RAISIN</div><img id = ""stim"" ><div class = red_square id = bottomsquare></div>",null,encoding,word_square,,,0,bottomsquare,none,true,,,RAISIN,2,,,
html-keyboard-response,336,503385,null,"<div style=""font-size:42px;"">RAISIN</div>",null,,word,RAISIN,,,,,,,,,,,,
html-keyboard-response,337,504896,null,"",null,,word,RAISIN,,,,,,,,,,,,
html-keyboard-response,338,505111,null,"<div style=""font-size:42px;"">PLIERS</div><img id = ""stim"" ><div class = green_square id = topsquare></div>",null,encoding,word_square,,,1,topsquare,32,true,,,PLIERS,2,,,
html-keyboard-response,339,505417,null,"<div style=""font-size:42px;"">PLIERS</div>",null,,word,PLIERS,,,,,,,,,,,,
html-keyboard-response,340,506934,96.30000001192093,"",32,,word,PLIERS,,,,,,,,,,,,
html-keyboard-response,341,507141,null,"<div style=""font-size:42px;"">CHAUFFEUR</div><img id = ""stim"" ><div class = red_square id = topsquare></div>",null,encoding,word_square,,,0,topsquare,none,true,,,CHAUFFEUR,2,,,
html-keyboard-response,342,507449,null,"<div style=""font-size:42px;"">CHAUFFEUR</div>",null,,word,CHAUFFEUR,,,,,,,,,,,,
html-keyboard-response,343,508956,null,"",null,,word,CHAUFFEUR,,,,,,,,,,,,
html-keyboard-response,344,509171,null,"<div style=""font-size:42px;"">GIFT</div><img id = ""stim"" ><div class = green_square id = bottomsquare></div>",null,encoding,word_square,,,1,bottomsquare,32,true,,,GIFT,2,,,
html-keyboard-response,345,509491,163.60000002384186,"<div style=""font-size:42px;"">GIFT</div>",32,,word,GIFT,,,,,,,,,,,,
html-keyboard-response,346,511007,null,"",null,,word,GIFT,,,,,,,,,,,,
html-keyboard-response,347,511219,null,"<div style=""font-size:42px;"">FRAME</div><img id = ""stim"" ><div class = red_square id = bottomsquare></div>",null,encoding,word_square,,,0,bottomsquare,none,true,,,FRAME,2,,,
html-keyboard-response,348,511527,null,"<div style=""font-size:42px;"">FRAME</div>",null,,word,FRAME,,,,,,,,,,,,
html-keyboard-response,349,513043,null,"",null,,word,FRAME,,,,,,,,,,,,
html-keyboard-response,350,513262,null,"<div style=""font-size:42px;"">SOFTBALL</div><img id = ""stim"" ><div class = green_square id = topsquare></div>",null,encoding,word_square,,,1,topsquare,32,true,,,SOFTBALL,2,,,
html-keyboard-response,351,513634,368.30000001192093,"<div style=""font-size:42px;"">SOFTBALL</div>",32,,word,SOFTBALL,,,,,,,,,,,,
html-keyboard-response,352,515146,null,"",null,,word,SOFTBALL,,,,,,,,,,,,
html-keyboard-response,353,515360,null,"<div style=""font-size:42px;"">LACE</div><img id = ""stim"" ><div class = green_square id = bottomsquare></div>",null,encoding,word_square,,,1,bottomsquare,32,true,,,LACE,2,,,
html-keyboard-response,354,515671,236.69999998807907,"<div style=""font-size:42px;"">LACE</div>",32,,word,LACE,,,,,,,,,,,,
html-keyboard-response,355,517177,null,"",null,,word,LACE,,,,,,,,,,,,
html-keyboard-response,356,517384,null,"<div style=""font-size:42px;"">SNORKEL</div><img id = ""stim"" ><div class = red_square id = topsquare></div>",null,encoding,word_square,,,0,topsquare,none,true,,,SNORKEL,2,,,
html-keyboard-response,357,517702,null,"<div style=""font-size:42px;"">SNORKEL</div>",null,,word,SNORKEL,,,,,,,,,,,,
html-keyboard-response,358,519217,null,"",null,,word,SNORKEL,,,,,,,,,,,,
html-keyboard-response,359,519429,null,"<div style=""font-size:42px;"">CRICKET</div><img id = ""stim"" ><div class = red_square id = bottomsquare></div>",null,encoding,word_square,,,0,bottomsquare,none,true,,,CRICKET,2,,,
html-keyboard-response,360,519748,null,"<div style=""font-size:42px;"">CRICKET</div>",null,,word,CRICKET,,,,,,,,,,,,
html-keyboard-response,361,521266,null,"",null,,word,CRICKET,,,,,,,,,,,,
html-keyboard-response,362,521486,null,"<div style=""font-size:42px;"">HEART</div><img id = ""stim"" ><div class = red_square id = topsquare></div>",null,encoding,word_square,,,0,topsquare,none,true,,,HEART,2,,,
html-keyboard-response,363,521802,null,"<div style=""font-size:42px;"">HEART</div>",null,,word,HEART,,,,,,,,,,,,
html-keyboard-response,364,523318,null,"",null,,word,HEART,,,,,,,,,,,,
html-keyboard-response,365,523526,null,"<div style=""font-size:42px;"">DONOR</div><img id = ""stim"" ><div class = green_square id = topsquare></div>",null,encoding,word_square,,,1,topsquare,32,true,,,DONOR,2,,,
html-keyboard-response,366,523834,291.19999998807907,"<div style=""font-size:42px;"">DONOR</div>",32,,word,DONOR,,,,,,,,,,,,
html-keyboard-response,367,525340,null,"",null,,word,DONOR,,,,,,,,,,,,
html-keyboard-response,368,525556,null,"<div style=""font-size:42px;"">PORTRAIT</div><img id = ""stim"" ><div class = green_square id = bottomsquare></div>",null,encoding,word_square,,,1,bottomsquare,32,true,,,PORTRAIT,2,,,
html-keyboard-response,369,525874,null,"<div style=""font-size:42px;"">PORTRAIT</div>",null,,word,PORTRAIT,,,,,,,,,,,,
html-keyboard-response,370,527390,0.20000004768371582,"",32,,word,PORTRAIT,,,,,,,,,,,,
call-function,371,527393,,"",,,,,,,,,,,,,,,,
html-keyboard-response,372,527505,null,"",null,,,,,,,,,,,,,,,
math-period,373,532438,8386.400000035763,"",,,,,,,,,,,5,,,,,
html-keyboard-response,374,532552,null,"",null,,,,,,,,,,,,,,,
math-period,375,534441,3118.0999999046326,"",,,,,,,,,,,3,,,,,
html-keyboard-response,376,534554,null,"",null,,,,,,,,,,,,,,,
math-period,377,536121,2926.100000023842,"",,,,,,,,,,,4,,,,,
html-keyboard-response,378,536241,null,"",null,,,,,,,,,,,,,,,
math-period,379,538500,4093.899999976158,"",,,,,,,,,,,2,,,,,
html-keyboard-response,380,538650,null,"",null,,,,,,,,,,,,,,,
math-period,381,541256,4863.399999976158,"",,,,,,,,,,,5,,,,,
html-keyboard-response,382,541363,null,"",null,,,,,,,,,,,,,,,
math-period,383,542965,3017.2000000476837,"",,,,,,,,,,,4,,,,,
html-keyboard-response,384,543073,null,"",null,,,,,,,,,,,,,,,
math-period,385,544323,2300.4999999403954,"",,,,,,,,,,,2,,,,,
html-keyboard-response,386,544428,null,"",null,,,,,,,,,,,,,,,
math-period,387,546333,3579.0000000596046,"",,,,,,,,,,,4,,,,,
html-keyboard-response,388,546437,null,"",null,,,,,,,,,,,,,,,
math-period,389,548348,3561.7999999523163,"",,,,,,,,,,,4,,,,,
html-keyboard-response,390,548452,null,"",null,,,,,,,,,,,,,,,
math-period,391,550241,3409.300000011921,"",,,,,,,,,,,1,,,,,
html-keyboard-response,392,550348,null,"",null,,,,,,,,,,,,,,,
math-period,393,551399,null,"",,,,,,,,,,,,,,,,
html-keyboard-response,394,552412,null,"Recall Period!",null,,,,,,,,,,,,,,,
call-function,395,552415,,"",,,,,,,,,,,,,,,,
html-keyboard-response,396,552534,null,"",null,,,,,,,,,,,,,,,
recall-period,397,554747,9031.899999976158,"",,,,,,,,,,,heart,,,,,
html-keyboard-response,398,554861,null,"",null,,,,,,,,,,,,,,,
recall-period,399,556088,4199.699999988079,"",,,,,,,,,,,donor,,,,,
html-keyboard-response,400,556194,null,"",null,,,,,,,,,,,,,,,
recall-period,401,558427,11593.80000013113,"",,,,,,,,,,,portrait,,,,,
html-keyboard-response,402,558546,null,"",null,,,,,,,,,,,,,,,
recall-period,403,563307,17326.30000001192,"",,,,,,,,,,,snorkel,,,,,
html-keyboard-response,404,563423,null,"",null,,,,,,,,,,,,,,,
recall-period,405,567525,24386.099999964237,"",,,,,,,,,,,pliers,,,,,
html-keyboard-response,406,567642,null,"",null,,,,,,,,,,,,,,,
recall-period,407,572960,23172.699999928474,"",,,,,,,,,,,lace,,,,,
html-keyboard-response,408,573075,null,"",null,,,,,,,,,,,,,,,
recall-period,409,575136,8504.099999904633,"",,,,,,,,,,,gift,,,,,
html-keyboard-response,410,575241,null,"",null,,,,,,,,,,,,,,,
recall-period,411,595521,162336.19999986887,"",,,,,,,,,,,chauffeur,,,,,
html-keyboard-response,412,595638,null,"",null,,,,,,,,,,,,,,,
recall-period,413,627439,null,"",,,,,,,,,,,,,,,,
html-keyboard-response,414,627954,null,"Time's Up!",null,,,,,,,,,,,,,,,
html-keyboard-response,415,632163,4203.5,"<p> Good job! You have responded correctly to 98% of the trials. </p>
                      <p>Be sure to only press the spacebar if you see a GREEN square, and please keep your accuracy above 80%.</p>
                      <p> Press any key to continue the experiment. </p>",32,,,,,,,,,,,,,,,
html-keyboard-response,416,633062,894.5,"<div style=""font-size:48px;"">Press any key to begin list 4 of 16 </div>",32,,,,,,,,,,,,,,,
html-keyboard-response,417,635580,null,"<div style=""font-size:60px;"">+</div>",null,,,,,,,,,,,,,,,
html-keyboard-response,418,635798,null,"<div style=""font-size:42px;"">NICKEL</div><img id = ""stim"" ><div class = green_square id = bottomsquare></div>",null,encoding,word_square,,,1,bottomsquare,32,true,,,NICKEL,3,,,
html-keyboard-response,419,636115,null,"<div style=""font-size:42px;"">NICKEL</div>",null,,word,NICKEL,,,,,,,,,,,,
html-keyboard-response,420,637632,31.30000001192093,"",32,,word,NICKEL,,,,,,,,,,,,
html-keyboard-response,421,637842,null,"<div style=""font-size:42px;"">FLEET</div><img id = ""stim"" ><div class = green_square id = topsquare></div>",null,encoding,word_square,,,1,topsquare,32,true,,,FLEET,3,,,
html-keyboard-response,422,638147,null,"<div style=""font-size:42px;"">FLEET</div>",null,,word,FLEET,,,,,,,,,,,,
html-keyboard-response,423,639666,91.69999998807907,"",32,,word,FLEET,,,,,,,,,,,,
html-keyboard-response,424,639875,null,"<div style=""font-size:42px;"">CASTLE</div><img id = ""stim"" ><div class = red_square id = topsquare></div>",null,encoding,word_square,,,0,topsquare,none,true,,,CASTLE,3,,,
html-keyboard-response,425,640183,null,"<div style=""font-size:42px;"">CASTLE</div>",null,,word,CASTLE,,,,,,,,,,,,
html-keyboard-response,426,641691,null,"",null,,word,CASTLE,,,,,,,,,,,,
html-keyboard-response,427,641908,null,"<div style=""font-size:42px;"">GAZELLE</div><img id = ""stim"" ><div class = red_square id = bottomsquare></div>",null,encoding,word_square,,,0,bottomsquare,none,true,,,GAZELLE,3,,,
html-keyboard-response,428,642220,null,"<div style=""font-size:42px;"">GAZELLE</div>",null,,word,GAZELLE,,,,,,,,,,,,
html-keyboard-response,429,643732,null,"",null,,word,GAZELLE,,,,,,,,,,,,
html-keyboard-response,430,643949,null,"<div style=""font-size:42px;"">HONEY</div><img id = ""stim"" ><div class = red_square id = topsquare></div>",null,encoding,word_square,,,0,topsquare,none,true,,,HONEY,3,,,
html-keyboard-response,431,644262,null,"<div style=""font-size:42px;"">HONEY</div>",null,,word,HONEY,,,,,,,,,,,,
html-keyboard-response,432,645781,null,"",null,,word,HONEY,,,,,,,,,,,,
html-keyboard-response,433,645997,null,"<div style=""font-size:42px;"">WAX</div><img id = ""stim"" ><div class = green_square id = bottomsquare></div>",null,encoding,word_square,,,1,bottomsquare,32,true,,,WAX,3,,,
html-keyboard-response,434,646311,250.39999997615814,"<div style=""font-size:42px;"">WAX</div>",32,,word,WAX,,,,,,,,,,,,
html-keyboard-response,435,647831,null,"",null,,word,WAX,,,,,,,,,,,,
html-keyboard-response,436,648047,null,"<div style=""font-size:42px;"">DAUGHTER</div><img id = ""stim"" ><div class = green_square id = topsquare></div>",null,encoding,word_square,,,1,topsquare,32,true,,,DAUGHTER,3,,,
html-keyboard-response,437,648360,null,"<div style=""font-size:42px;"">DAUGHTER</div>",null,,word,DAUGHTER,,,,,,,,,,,,
html-keyboard-response,438,649870,126.80000001192093,"",32,,word,DAUGHTER,,,,,,,,,,,,
html-keyboard-response,439,650075,null,"<div style=""font-size:42px;"">CREATURE</div><img id = ""stim"" ><div class = red_square id = bottomsquare></div>",null,encoding,word_square,,,0,bottomsquare,none,true,,,CREATURE,3,,,
html-keyboard-response,440,650382,null,"<div style=""font-size:42px;"">CREATURE</div>",null,,word,CREATURE,,,,,,,,,,,,
html-keyboard-response,441,651891,null,"",null,,word,CREATURE,,,,,,,,,,,,
html-keyboard-response,442,652113,null,"<div style=""font-size:42px;"">ELK</div><img id = ""stim"" ><div class = green_square id = bottomsquare></div>",null,encoding,word_square,,,1,bottomsquare,32,true,,,ELK,3,,,
html-keyboard-response,443,652420,243.5999999642372,"<div style=""font-size:42px;"">ELK</div>",32,,word,ELK,,,,,,,,,,,,
html-keyboard-response,444,653940,null,"",null,,word,ELK,,,,,,,,,,,,
html-keyboard-response,445,654161,null,"<div style=""font-size:42px;"">SLACKS</div><img id = ""stim"" ><div class = red_square id = topsquare></div>",null,encoding,word_square,,,0,topsquare,none,true,,,SLACKS,3,,,
html-keyboard-response,446,654473,null,"<div style=""font-size:42px;"">SLACKS</div>",null,,word,SLACKS,,,,,,,,,,,,
html-keyboard-response,447,655990,null,"",null,,word,SLACKS,,,,,,,,,,,,
html-keyboard-response,448,656210,null,"<div style=""font-size:42px;"">WORKER</div><img id = ""stim"" ><div class = green_square id = topsquare></div>",null,encoding,word_square,,,1,topsquare,32,true,,,WORKER,3,,,
html-keyboard-response,449,656517,null,"<div style=""font-size:42px;"">WORKER</div>",null,,word,WORKER,,,,,,,,,,,,
html-keyboard-response,450,658024,22.899999976158142,"",32,,word,WORKER,,,,,,,,,,,,
html-keyboard-response,451,658243,null,"<div style=""font-size:42px;"">BRIDE</div><img id = ""stim"" ><div class = red_square id = bottomsquare></div>",null,encoding,word_square,,,0,bottomsquare,none,true,,,BRIDE,3,,,
html-keyboard-response,452,658560,null,"<div style=""font-size:42px;"">BRIDE</div>",null,,word,BRIDE,,,,,,,,,,,,
html-keyboard-response,453,660080,null,"",null,,word,BRIDE,,,,,,,,,,,,
html-keyboard-response,454,660286,null,"<div style=""font-size:42px;"">BANK</div><img id = ""stim"" ><div class = red_square id = topsquare></div>",null,encoding,word_square,,,0,topsquare,none,true,,,BANK,3,,,
html-keyboard-response,455,660596,null,"<div style=""font-size:42px;"">BANK</div>",null,,word,BANK,,,,,,,,,,,,
html-keyboard-response,456,662114,null,"",null,,word,BANK,,,,,,,,,,,,
html-keyboard-response,457,662331,null,"<div style=""font-size:42px;"">ATLAS</div><img id = ""stim"" ><div class = green_square id = bottomsquare></div>",null,encoding,word_square,,,1,bottomsquare,32,true,,,ATLAS,3,,,
html-keyboard-response,458,662651,null,"<div style=""font-size:42px;"">ATLAS</div>",null,,word,ATLAS,,,,,,,,,,,,
html-keyboard-response,459,664166,161.10000002384186,"",32,,word,ATLAS,,,,,,,,,,,,
html-keyboard-response,460,664463,null,"<div style=""font-size:42px;"">WORLD</div><img id = ""stim"" ><div class = green_square id = topsquare></div>",null,encoding,word_square,,,1,topsquare,32,true,,,WORLD,3,,,
html-keyboard-response,461,664776,129.5,"<div style=""font-size:42px;"">WORLD</div>",32,,word,WORLD,,,,,,,,,,,,
html-keyboard-response,462,666297,null,"",null,,word,WORLD,,,,,,,,,,,,
html-keyboard-response,463,666509,null,"<div style=""font-size:42px;"">LAPEL</div><img id = ""stim"" ><div class = red_square id = bottomsquare></div>",null,encoding,word_square,,,0,bottomsquare,none,true,,,LAPEL,3,,,
html-keyboard-response,464,666816,null,"<div style=""font-size:42px;"">LAPEL</div>",null,,word,LAPEL,,,,,,,,,,,,
html-keyboard-response,465,668334,null,"",null,,word,LAPEL,,,,,,,,,,,,
call-function,466,668335,,"",,,,,,,,,,,,,,,,
html-keyboard-response,467,668448,null,"",null,,,,,,,,,,,,,,,
math-period,468,671127,4493.300000011921,"",,,,,,,,,,,1,,,,,
html-keyboard-response,469,671241,null,"",null,,,,,,,,,,,,,,,
math-period,470,673089,3363.7000000476837,"",,,,,,,,,,,1,,,,,
html-keyboard-response,471,673207,null,"",null,,,,,,,,,,,,,,,
math-period,472,675365,4065.2999999523163,"",,,,,,,,,,,1,,,,,
html-keyboard-response,473,675475,null,"",null,,,,,,,,,,,,,,,
math-period,474,677117,3155.9999999403954,"",,,,,,,,,,,2,,,,,
html-keyboard-response,475,677225,null,"",null,,,,,,,,,,,,,,,
math-period,476,678735,2760.9999999403954,"",,,,,,,,,,,1,,,,,
html-keyboard-response,477,678848,null,"",null,,,,,,,,,,,,,,,
math-period,478,680197,2499.2000000476837,"",,,,,,,,,,,3,,,,,
html-keyboard-response,479,680304,null,"",null,,,,,,,,,,,,,,,
math-period,480,682112,3379,"",,,,,,,,,,,5,,,,,
html-keyboard-response,481,682230,null,"",null,,,,,,,,,,,,,,,
math-period,482,683405,2191.199999988079,"",,,,,,,,,,,2,,,,,
html-keyboard-response,483,683510,null,"",null,,,,,,,,,,,,,,,
math-period,484,686042,4867.699999988079,"",,,,,,,,,,,3,,,,,
html-keyboard-response,485,686147,null,"",null,,,,,,,,,,,,,,,
math-period,486,689043,5410.399999976158,"",,,,,,,,,,,5,,,,,
html-keyboard-response,487,689157,null,"",null,,,,,,,,,,,,,,,
math-period,488,690835,3109.9999999403954,"",,,,,,,,,,,1,,,,,
html-keyboard-response,489,690951,null,"",null,,,,,,,,,,,,,,,
math-period,490,692353,null,"",,,,,,,,,,,,,,,,
html-keyboard-response,491,693366,null,"Recall Period!",null,,,,,,,,,,,,,,,
call-function,492,693368,,"",,,,,,,,,,,,,,,,
html-keyboard-response,493,693473,null,"",null,,,,,,,,,,,,,,,
recall-period,494,696141,14032.499999821186,"",,,,,,,,,,,worker,,,,,
html-keyboard-response,495,696247,null,"",null,,,,,,,,,,,,,,,
recall-period,496,697923,6997.199999988079,"",,,,,,,,,,,bride,,,,,
html-keyboard-response,497,698030,null,"",null,,,,,,,,,,,,,,,
recall-period,498,699857,6986.299999773502,"",,,,,,,,,,,slacks,,,,,
html-keyboard-response,499,699975,null,"",null,,,,,,,,,,,,,,,
recall-period,500,701320,2496.5,"",,,,,,,,,,,elk,,,,,
html-keyboard-response,501,701431,null,"",null,,,,,,,,,,,,,,,
recall-period,502,708793,40184.50000011921,"",,,,,,,,,,,honey,,,,,
html-keyboard-response,503,708901,null,"",null,,,,,,,,,,,,,,,
recall-period,504,710888,4000.9999998807907,"",,,,,,,,,,,wax,,,,,
html-keyboard-response,505,710994,null,"",null,,,,,,,,,,,,,,,
recall-period,506,714715,19320.89999985695,"",,,,,,,,,,,atlas,,,,,
html-keyboard-response,507,714826,null,"",null,,,,,,,,,,,,,,,
recall-period,508,768384,null,"",,,,,,,,,,,,,,,,
html-keyboard-response,509,768891,null,"Time's Up!",null,,,,,,,,,,,,,,,
html-keyboard-response,510,774084,5187.399999976158,"<p> Good job! You have responded correctly to 98% of the trials. </p>
                      <p>Be sure to only press the spacebar if you see a GREEN square, and please keep your accuracy above 80%.</p>
                      <p> Press any key to continue the experiment. </p>",32,,,,,,,,,,,,,,,
html-keyboard-response,511,775195,1106.7999999523163,"<div style=""font-size:48px;"">Press any key to begin list 5 of 16 </div>",32,,,,,,,,,,,,,,,
html-keyboard-response,512,777714,null,"<div style=""font-size:60px;"">+</div>",null,,,,,,,,,,,,,,,
html-keyboard-response,513,777931,null,"<div style=""font-size:42px;"">BALLOON</div><img id = ""stim"" ><div class = green_square id = topsquare></div>",null,encoding,word_square,,,1,topsquare,32,true,,,BALLOON,4,,,
html-keyboard-response,514,778245,null,"<div style=""font-size:42px;"">BALLOON</div>",null,,word,BALLOON,,,,,,,,,,,,
html-keyboard-response,515,779763,9.800000011920929,"",32,,word,BALLOON,,,,,,,,,,,,
html-keyboard-response,516,779981,null,"<div style=""font-size:42px;"">MARKET</div><img id = ""stim"" ><div class = red_square id = bottomsquare></div>",null,encoding,word_square,,,0,bottomsquare,none,true,,,MARKET,4,,,
html-keyboard-response,517,780301,null,"<div style=""font-size:42px;"">MARKET</div>",null,,word,MARKET,,,,,,,,,,,,
html-keyboard-response,518,781816,null,"",null,,word,MARKET,,,,,,,,,,,,
html-keyboard-response,519,782024,null,"<div style=""font-size:42px;"">SCALPEL</div><img id = ""stim"" ><div class = red_square id = topsquare></div>",null,encoding,word_square,,,0,topsquare,none,true,,,SCALPEL,4,,,
html-keyboard-response,520,782331,null,"<div style=""font-size:42px;"">SCALPEL</div>",null,,word,SCALPEL,,,,,,,,,,,,
html-keyboard-response,521,783853,null,"",null,,word,SCALPEL,,,,,,,,,,,,
html-keyboard-response,522,784073,null,"<div style=""font-size:42px;"">GLASSES</div><img id = ""stim"" ><div class = green_square id = bottomsquare></div>",null,encoding,word_square,,,1,bottomsquare,32,true,,,GLASSES,4,,,
html-keyboard-response,523,784383,null,"<div style=""font-size:42px;"">GLASSES</div>",null,,word,GLASSES,,,,,,,,,,,,
html-keyboard-response,524,785906,79.30000001192093,"",32,,word,GLASSES,,,,,,,,,,,,
html-keyboard-response,525,786122,null,"<div style=""font-size:42px;"">COBRA</div><img id = ""stim"" ><div class = red_square id = bottomsquare></div>",null,encoding,word_square,,,0,bottomsquare,none,true,,,COBRA,4,,,
html-keyboard-response,526,786430,null,"<div style=""font-size:42px;"">COBRA</div>",null,,word,COBRA,,,,,,,,,,,,
html-keyboard-response,527,787942,null,"",null,,word,COBRA,,,,,,,,,,,,
html-keyboard-response,528,788158,null,"<div style=""font-size:42px;"">SALT</div><img id = ""stim"" ><div class = green_square id = topsquare></div>",null,encoding,word_square,,,1,topsquare,32,true,,,SALT,4,,,
html-keyboard-response,529,788465,null,"<div style=""font-size:42px;"">SALT</div>",null,,word,SALT,,,,,,,,,,,,
html-keyboard-response,530,789978,128.10000002384186,"",32,,word,SALT,,,,,,,,,,,,
html-keyboard-response,531,790203,null,"<div style=""font-size:42px;"">PARSLEY</div><img id = ""stim"" ><div class = red_square id = topsquare></div>",null,encoding,word_square,,,0,topsquare,none,true,,,PARSLEY,4,,,
html-keyboard-response,532,790509,null,"<div style=""font-size:42px;"">PARSLEY</div>",null,,word,PARSLEY,,,,,,,,,,,,
html-keyboard-response,533,792027,null,"",null,,word,PARSLEY,,,,,,,,,,,,
html-keyboard-response,534,792235,null,"<div style=""font-size:42px;"">OZONE</div><img id = ""stim"" ><div class = red_square id = bottomsquare></div>",null,encoding,word_square,,,0,bottomsquare,none,true,,,OZONE,4,,,
html-keyboard-response,535,792543,null,"<div style=""font-size:42px;"">OZONE</div>",null,,word,OZONE,,,,,,,,,,,,
html-keyboard-response,536,794051,null,"",null,,word,OZONE,,,,,,,,,,,,
html-keyboard-response,537,794260,null,"<div style=""font-size:42px;"">SIRLOIN</div><img id = ""stim"" ><div class = green_square id = bottomsquare></div>",null,encoding,word_square,,,1,bottomsquare,32,true,,,SIRLOIN,4,,,
html-keyboard-response,538,794566,null,"<div style=""font-size:42px;"">SIRLOIN</div>",null,,word,SIRLOIN,,,,,,,,,,,,
html-keyboard-response,539,796082,96.5,"",32,,word,SIRLOIN,,,,,,,,,,,,
html-keyboard-response,540,796288,null,"<div style=""font-size:42px;"">PIANO</div><img id = ""stim"" ><div class = green_square id = topsquare></div>",null,encoding,word_square,,,1,topsquare,32,true,,,PIANO,4,,,
html-keyboard-response,541,796603,null,"<div style=""font-size:42px;"">PIANO</div>",null,,word,PIANO,,,,,,,,,,,,
html-keyboard-response,542,798123,36.89999997615814,"",32,,word,PIANO,,,,,,,,,,,,
html-keyboard-response,543,798342,null,"<div style=""font-size:42px;"">KIDNEY</div><img id = ""stim"" ><div class = green_square id = bottomsquare></div>",null,encoding,word_square,,,1,bottomsquare,32,true,,,KIDNEY,4,,,
html-keyboard-response,544,798663,269.0999999642372,"<div style=""font-size:42px;"">KIDNEY</div>",32,,word,KIDNEY,,,,,,,,,,,,
html-keyboard-response,545,800209,null,"",null,,word,KIDNEY,,,,,,,,,,,,
html-keyboard-response,546,800423,null,"<div style=""font-size:42px;"">ADULT</div><img id = ""stim"" ><div class = red_square id = topsquare></div>",null,encoding,word_square,,,0,topsquare,none,true,,,ADULT,4,,,
html-keyboard-response,547,800733,null,"<div style=""font-size:42px;"">ADULT</div>",null,,word,ADULT,,,,,,,,,,,,
html-keyboard-response,548,802241,null,"",null,,word,ADULT,,,,,,,,,,,,
html-keyboard-response,549,802463,null,"<div style=""font-size:42px;"">BUTLER</div><img id = ""stim"" ><div class = green_square id = topsquare></div>",null,encoding,word_square,,,1,topsquare,32,true,,,BUTLER,4,,,
html-keyboard-response,550,802781,null,"<div style=""font-size:42px;"">BUTLER</div>",null,,word,BUTLER,,,,,,,,,,,,
html-keyboard-response,551,804297,7.399999976158142,"",32,,word,BUTLER,,,,,,,,,,,,
html-keyboard-response,552,804518,null,"<div style=""font-size:42px;"">CANYON</div><img id = ""stim"" ><div class = green_square id = bottomsquare></div>",null,encoding,word_square,,,1,bottomsquare,32,true,,,CANYON,4,,,
html-keyboard-response,553,804829,null,"<div style=""font-size:42px;"">CANYON</div>",null,,word,CANYON,,,,,,,,,,,,
html-keyboard-response,554,806347,78,"",32,,word,CANYON,,,,,,,,,,,,
html-keyboard-response,555,806563,null,"<div style=""font-size:42px;"">CIGAR</div><img id = ""stim"" ><div class = red_square id = bottomsquare></div>",null,encoding,word_square,,,0,bottomsquare,none,true,,,CIGAR,4,,,
html-keyboard-response,556,806879,null,"<div style=""font-size:42px;"">CIGAR</div>",null,,word,CIGAR,,,,,,,,,,,,
html-keyboard-response,557,808395,null,"",null,,word,CIGAR,,,,,,,,,,,,
html-keyboard-response,558,808700,null,"<div style=""font-size:42px;"">SPICE</div><img id = ""stim"" ><div class = red_square id = topsquare></div>",null,encoding,word_square,,,0,topsquare,none,true,,,SPICE,4,,,
html-keyboard-response,559,809009,null,"<div style=""font-size:42px;"">SPICE</div>",null,,word,SPICE,,,,,,,,,,,,
html-keyboard-response,560,810531,null,"",null,,word,SPICE,,,,,,,,,,,,
call-function,561,810535,,"",,,,,,,,,,,,,,,,
html-keyboard-response,562,810647,null,"",null,,,,,,,,,,,,,,,
math-period,563,814074,6112,"",,,,,,,,,,,3,,,,,
html-keyboard-response,564,814183,null,"",null,,,,,,,,,,,,,,,
math-period,565,816713,4227.700000047684,"",,,,,,,,,,,4,,,,,
html-keyboard-response,566,816827,null,"",null,,,,,,,,,,,,,,,
math-period,567,818936,3731.7000000476837,"",,,,,,,,,,,4,,,,,
html-keyboard-response,568,819042,null,"",null,,,,,,,,,,,,,,,
math-period,569,821123,3599.600000023842,"",,,,,,,,,,,2,,,,,
html-keyboard-response,570,821238,null,"",null,,,,,,,,,,,,,,,
math-period,571,823767,4531.099999964237,"",,,,,,,,,,,6,,,,,
html-keyboard-response,572,823873,null,"",null,,,,,,,,,,,,,,,
math-period,573,825714,3142.800000011921,"",,,,,,,,,,,2,,,,,
html-keyboard-response,574,825832,null,"",null,,,,,,,,,,,,,,,
math-period,575,827534,2865,"",,,,,,,,,,,3,,,,,
html-keyboard-response,576,827650,null,"",null,,,,,,,,,,,,,,,
math-period,577,830645,5495.699999988079,"",,,,,,,,,,,4,,,,,
html-keyboard-response,578,830753,null,"",null,,,,,,,,,,,,,,,
math-period,579,832622,3266.5,"",,,,,,,,,,,4,,,,,
html-keyboard-response,580,832730,null,"",null,,,,,,,,,,,,,,,
math-period,581,834549,1618.5999999642372,"",,,,,,,,,,,5,,,,,
html-keyboard-response,582,835557,null,"Recall Period!",null,,,,,,,,,,,,,,,
call-function,583,835561,,"",,,,,,,,,,,,,,,,
html-keyboard-response,584,835670,null,"",null,,,,,,,,,,,,,,,
recall-period,585,845583,63442.49999988079,"",,,,,,,,,,,market,,,,,
html-keyboard-response,586,845697,null,"",null,,,,,,,,,,,,,,,
recall-period,587,847830,10165.899999797344,"",,,,,,,,,,,balloon,,,,,
html-keyboard-response,588,847937,null,"",null,,,,,,,,,,,,,,,
recall-period,589,853398,28834.700000047684,"",,,,,,,,,,,cobra,,,,,
html-keyboard-response,590,853505,null,"",null,,,,,,,,,,,,,,,
recall-period,591,858163,23703.099999845028,"",,,,,,,,,,,piano,,,,,
html-keyboard-response,592,858279,null,"",null,,,,,,,,,,,,,,,
recall-period,593,864152,26052.50000011921,"",,,,,,,,,,,spice,,,,,
html-keyboard-response,594,864257,null,"",null,,,,,,,,,,,,,,,
recall-period,595,910569,null,"",,,,,,,,,,,,,,,,
html-keyboard-response,596,911085,null,"Time's Up!",null,,,,,,,,,,,,,,,
html-keyboard-response,597,916317,5226.800000011921,"<p> Good job! You have responded correctly to 99% of the trials. </p>
                      <p>Be sure to only press the spacebar if you see a GREEN square, and please keep your accuracy above 80%.</p>
                      <p> Press any key to continue the experiment. </p>",32,,,,,,,,,,,,,,,
html-keyboard-response,598,917483,1160.6000000238419,"<div style=""font-size:48px;"">Press any key to begin list 6 of 16 </div>",32,,,,,,,,,,,,,,,
html-keyboard-response,599,919998,null,"<div style=""font-size:60px;"">+</div>",null,,,,,,,,,,,,,,,
html-keyboard-response,600,920218,null,"<div style=""font-size:42px;"">BEAKER</div><img id = ""stim"" ><div class = red_square id = topsquare></div>",null,encoding,word_square,,,0,topsquare,none,true,,,BEAKER,5,,,
html-keyboard-response,601,920540,null,"<div style=""font-size:42px;"">BEAKER</div>",null,,word,BEAKER,,,,,,,,,,,,
html-keyboard-response,602,922053,null,"",null,,word,BEAKER,,,,,,,,,,,,
html-keyboard-response,603,922270,null,"<div style=""font-size:42px;"">BOUQUET</div><img id = ""stim"" ><div class = red_square id = bottomsquare></div>",null,encoding,word_square,,,0,bottomsquare,none,true,,,BOUQUET,5,,,
html-keyboard-response,604,922579,null,"<div style=""font-size:42px;"">BOUQUET</div>",null,,word,BOUQUET,,,,,,,,,,,,
html-keyboard-response,605,924088,null,"",null,,word,BOUQUET,,,,,,,,,,,,
html-keyboard-response,606,924299,null,"<div style=""font-size:42px;"">TWIG</div><img id = ""stim"" ><div class = green_square id = bottomsquare></div>",null,encoding,word_square,,,1,bottomsquare,32,true,,,TWIG,5,,,
html-keyboard-response,607,924621,315.69999998807907,"<div style=""font-size:42px;"">TWIG</div>",32,,word,TWIG,,,,,,,,,,,,
html-keyboard-response,608,926141,null,"",null,,word,TWIG,,,,,,,,,,,,
html-keyboard-response,609,926349,null,"<div style=""font-size:42px;"">SHRUB</div><img id = ""stim"" ><div class = green_square id = topsquare></div>",null,encoding,word_square,,,1,topsquare,32,true,,,SHRUB,5,,,
html-keyboard-response,610,926670,null,"<div style=""font-size:42px;"">SHRUB</div>",null,,word,SHRUB,,,,,,,,,,,,
html-keyboard-response,611,928189,42.10000002384186,"",32,,word,SHRUB,,,,,,,,,,,,
html-keyboard-response,612,928407,null,"<div style=""font-size:42px;"">BASKET</div><img id = ""stim"" ><div class = red_square id = topsquare></div>",null,encoding,word_square,,,0,topsquare,none,true,,,BASKET,5,,,
html-keyboard-response,613,928738,null,"<div style=""font-size:42px;"">BASKET</div>",null,,word,BASKET,,,,,,,,,,,,
html-keyboard-response,614,930244,null,"",null,,word,BASKET,,,,,,,,,,,,
html-keyboard-response,615,930451,null,"<div style=""font-size:42px;"">FEMALE</div><img id = ""stim"" ><div class = green_square id = bottomsquare></div>",null,encoding,word_square,,,1,bottomsquare,32,true,,,FEMALE,5,,,
html-keyboard-response,616,930759,null,"<div style=""font-size:42px;"">FEMALE</div>",null,,word,FEMALE,,,,,,,,,,,,
html-keyboard-response,617,932278,78.70000004768372,"",32,,word,FEMALE,,,,,,,,,,,,
html-keyboard-response,618,932499,null,"<div style=""font-size:42px;"">CABOOSE</div><img id = ""stim"" ><div class = green_square id = topsquare></div>",null,encoding,word_square,,,1,topsquare,32,true,,,CABOOSE,5,,,
html-keyboard-response,619,932813,null,"<div style=""font-size:42px;"">CABOOSE</div>",null,,word,CABOOSE,,,,,,,,,,,,
html-keyboard-response,620,934329,11.299999952316284,"",32,,word,CABOOSE,,,,,,,,,,,,
html-keyboard-response,621,934536,null,"<div style=""font-size:42px;"">NEUTRON</div><img id = ""stim"" ><div class = green_square id = bottomsquare></div>",null,encoding,word_square,,,1,bottomsquare,32,true,,,NEUTRON,5,,,
html-keyboard-response,622,934845,null,"<div style=""font-size:42px;"">NEUTRON</div>",null,,word,NEUTRON,,,,,,,,,,,,
html-keyboard-response,623,936366,19.100000023841858,"",32,,word,NEUTRON,,,,,,,,,,,,
html-keyboard-response,624,936585,null,"<div style=""font-size:42px;"">FIREMAN</div><img id = ""stim"" ><div class = red_square id = bottomsquare></div>",null,encoding,word_square,,,0,bottomsquare,none,true,,,FIREMAN,5,,,
html-keyboard-response,625,936893,null,"<div style=""font-size:42px;"">FIREMAN</div>",null,,word,FIREMAN,,,,,,,,,,,,
html-keyboard-response,626,938405,null,"",null,,word,FIREMAN,,,,,,,,,,,,
html-keyboard-response,627,938614,null,"<div style=""font-size:42px;"">HAMMOCK</div><img id = ""stim"" ><div class = red_square id = topsquare></div>",null,encoding,word_square,,,0,topsquare,none,true,,,HAMMOCK,5,,,
html-keyboard-response,628,938923,null,"<div style=""font-size:42px;"">HAMMOCK</div>",null,,word,HAMMOCK,,,,,,,,,,,,
html-keyboard-response,629,940443,null,"",null,,word,HAMMOCK,,,,,,,,,,,,
html-keyboard-response,630,940658,null,"<div style=""font-size:42px;"">CRAB</div><img id = ""stim"" ><div class = green_square id = topsquare></div>",null,encoding,word_square,,,1,topsquare,32,true,,,CRAB,5,,,
html-keyboard-response,631,940975,null,"<div style=""font-size:42px;"">CRAB</div>",null,,word,CRAB,,,,,,,,,,,,
html-keyboard-response,632,942497,80.40000003576279,"",32,,word,CRAB,,,,,,,,,,,,
html-keyboard-response,633,942707,null,"<div style=""font-size:42px;"">CORAL</div><img id = ""stim"" ><div class = red_square id = bottomsquare></div>",null,encoding,word_square,,,0,bottomsquare,none,true,,,CORAL,5,,,
html-keyboard-response,634,943024,null,"<div style=""font-size:42px;"">CORAL</div>",null,,word,CORAL,,,,,,,,,,,,
html-keyboard-response,635,944546,null,"",null,,word,CORAL,,,,,,,,,,,,
html-keyboard-response,636,944768,null,"<div style=""font-size:42px;"">LIPSTICK</div><img id = ""stim"" ><div class = green_square id = bottomsquare></div>",null,encoding,word_square,,,1,bottomsquare,32,true,,,LIPSTICK,5,,,
html-keyboard-response,637,945078,null,"<div style=""font-size:42px;"">LIPSTICK</div>",null,,word,LIPSTICK,,,,,,,,,,,,
html-keyboard-response,638,946598,39.60000002384186,"",32,,word,LIPSTICK,,,,,,,,,,,,
html-keyboard-response,639,946815,null,"<div style=""font-size:42px;"">RADISH</div><img id = ""stim"" ><div class = red_square id = topsquare></div>",null,encoding,word_square,,,0,topsquare,none,true,,,RADISH,5,,,
html-keyboard-response,640,947133,null,"<div style=""font-size:42px;"">RADISH</div>",null,,word,RADISH,,,,,,,,,,,,
html-keyboard-response,641,948649,null,"",null,,word,RADISH,,,,,,,,,,,,
html-keyboard-response,642,948864,null,"<div style=""font-size:42px;"">CIRCUS</div><img id = ""stim"" ><div class = red_square id = bottomsquare></div>",null,encoding,word_square,,,0,bottomsquare,none,true,,,CIRCUS,5,,,
html-keyboard-response,643,949172,null,"<div style=""font-size:42px;"">CIRCUS</div>",null,,word,CIRCUS,,,,,,,,,,,,
html-keyboard-response,644,950782,null,"",null,,word,CIRCUS,,,,,,,,,,,,
html-keyboard-response,645,950996,null,"<div style=""font-size:42px;"">OATMEAL</div><img id = ""stim"" ><div class = green_square id = topsquare></div>",null,encoding,word_square,,,1,topsquare,32,true,,,OATMEAL,5,,,
html-keyboard-response,646,951314,null,"<div style=""font-size:42px;"">OATMEAL</div>",null,,word,OATMEAL,,,,,,,,,,,,
html-keyboard-response,647,952828,6.699999988079071,"",32,,word,OATMEAL,,,,,,,,,,,,
call-function,648,952831,,"",,,,,,,,,,,,,,,,
html-keyboard-response,649,952938,null,"",null,,,,,,,,,,,,,,,
math-period,650,959194,11496.5,"",,,,,,,,,,,1,,,,,
html-keyboard-response,651,959306,null,"",null,,,,,,,,,,,,,,,
math-period,652,961117,2814.899999976158,"",,,,,,,,,,,2,,,,,
html-keyboard-response,653,961224,null,"",null,,,,,,,,,,,,,,,
math-period,654,963849,4500.499999940395,"",,,,,,,,,,,4,,,,,
html-keyboard-response,655,963959,null,"",null,,,,,,,,,,,,,,,
math-period,656,965966,3251.1999999284744,"",,,,,,,,,,,3,,,,,
html-keyboard-response,657,966072,null,"",null,,,,,,,,,,,,,,,
math-period,658,968168,3518.400000035763,"",,,,,,,,,,,5,,,,,
html-keyboard-response,659,968280,null,"",null,,,,,,,,,,,,,,,
math-period,660,970415,3620.1999999284744,"",,,,,,,,,,,6,,,,,
html-keyboard-response,661,970531,null,"",null,,,,,,,,,,,,,,,
math-period,662,972492,3323.2999999523163,"",,,,,,,,,,,5,,,,,
html-keyboard-response,663,972610,null,"",null,,,,,,,,,,,,,,,
math-period,664,974378,2900.5,"",,,,,,,,,,,3,,,,,
html-keyboard-response,665,974491,null,"",null,,,,,,,,,,,,,,,
math-period,666,976514,3362,"",,,,,,,,,,,5,,,,,
html-keyboard-response,667,976621,null,"",null,,,,,,,,,,,,,,,
math-period,668,976850,null,"",,,,,,,,,,,,,,,,
html-keyboard-response,669,977860,null,"Recall Period!",null,,,,,,,,,,,,,,,
call-function,670,977863,,"",,,,,,,,,,,,,,,,
html-keyboard-response,671,977971,null,"",null,,,,,,,,,,,,,,,
recall-period,672,984677,42691.300000071526,"",,,,,,,,,,,female,,,,,
html-keyboard-response,673,984784,null,"",null,,,,,,,,,,,,,,,
recall-period,674,986960,11966.899999797344,"",,,,,,,,,,,caboose,,,,,
html-keyboard-response,675,987076,null,"",null,,,,,,,,,,,,,,,
recall-period,676,990613,16976.599999904633,"",,,,,,,,,,,lipstick,,,,,
html-keyboard-response,677,990727,null,"",null,,,,,,,,,,,,,,,
recall-period,678,992514,6530.399999976158,"",,,,,,,,,,,twig,,,,,
html-keyboard-response,679,992628,null,"",null,,,,,,,,,,,,,,,
recall-period,680,994644,6134.799999892712,"",,,,,,,,,,,shrub,,,,,
html-keyboard-response,681,994758,null,"",null,,,,,,,,,,,,,,,
recall-period,682,1002100,32201.80000013113,"",,,,,,,,,,,crab,,,,,
html-keyboard-response,683,1002218,null,"",null,,,,,,,,,,,,,,,
recall-period,684,1052874,null,"",,,,,,,,,,,,,,,,
html-keyboard-response,685,1053387,null,"Time's Up!",null,,,,,,,,,,,,,,,
html-keyboard-response,686,1056975,3582.599999964237,"<p> Good job! You have responded correctly to 99% of the trials. </p>
                      <p>Be sure to only press the spacebar if you see a GREEN square, and please keep your accuracy above 80%.</p>
                      <p> Press any key to continue the experiment. </p>",32,,,,,,,,,,,,,,,
html-keyboard-response,687,1059332,2352.899999976158,"<div style=""font-size:48px;"">Press any key to begin list 7 of 16 </div>",32,,,,,,,,,,,,,,,
html-keyboard-response,688,1061848,null,"<div style=""font-size:60px;"">+</div>",null,,,,,,,,,,,,,,,
html-keyboard-response,689,1062066,null,"<div style=""font-size:42px;"">TOILET</div><img id = ""stim"" ><div class = red_square id = bottomsquare></div>",null,encoding,word_square,,,0,bottomsquare,none,true,,,TOILET,6,,,
html-keyboard-response,690,1062382,null,"<div style=""font-size:42px;"">TOILET</div>",null,,word,TOILET,,,,,,,,,,,,
html-keyboard-response,691,1063900,null,"",null,,word,TOILET,,,,,,,,,,,,
html-keyboard-response,692,1064115,null,"<div style=""font-size:42px;"">BISON</div><img id = ""stim"" ><div class = green_square id = topsquare></div>",null,encoding,word_square,,,1,topsquare,32,true,,,BISON,6,,,
html-keyboard-response,693,1064431,null,"<div style=""font-size:42px;"">BISON</div>",null,,word,BISON,,,,,,,,,,,,
html-keyboard-response,694,1065937,34.90000003576279,"",32,,word,BISON,,,,,,,,,,,,
html-keyboard-response,695,1066147,null,"<div style=""font-size:42px;"">CATTLE</div><img id = ""stim"" ><div class = green_square id = bottomsquare></div>",null,encoding,word_square,,,1,bottomsquare,32,true,,,CATTLE,6,,,
html-keyboard-response,696,1066454,null,"<div style=""font-size:42px;"">CATTLE</div>",null,,word,CATTLE,,,,,,,,,,,,
html-keyboard-response,697,1067973,20.30000001192093,"",32,,word,CATTLE,,,,,,,,,,,,
html-keyboard-response,698,1068195,null,"<div style=""font-size:42px;"">CABBAGE</div><img id = ""stim"" ><div class = red_square id = topsquare></div>",null,encoding,word_square,,,0,topsquare,none,true,,,CABBAGE,6,,,
html-keyboard-response,699,1068502,null,"<div style=""font-size:42px;"">CABBAGE</div>",null,,word,CABBAGE,,,,,,,,,,,,
html-keyboard-response,700,1070008,null,"",null,,word,CABBAGE,,,,,,,,,,,,
html-keyboard-response,701,1070226,null,"<div style=""font-size:42px;"">TRANSPLANT</div><img id = ""stim"" ><div class = green_square id = topsquare></div>",null,encoding,word_square,,,1,topsquare,32,true,,,TRANSPLANT,6,,,
html-keyboard-response,702,1070534,286.69999998807907,"<div style=""font-size:42px;"">TRANSPLANT</div>",32,,word,TRANSPLANT,,,,,,,,,,,,
html-keyboard-response,703,1072042,null,"",null,,word,TRANSPLANT,,,,,,,,,,,,
html-keyboard-response,704,1072262,null,"<div style=""font-size:42px;"">STAPLE</div><img id = ""stim"" ><div class = red_square id = bottomsquare></div>",null,encoding,word_square,,,0,bottomsquare,none,true,,,STAPLE,6,,,
html-keyboard-response,705,1072570,null,"<div style=""font-size:42px;"">STAPLE</div>",null,,word,STAPLE,,,,,,,,,,,,
html-keyboard-response,706,1074082,null,"",null,,word,STAPLE,,,,,,,,,,,,
html-keyboard-response,707,1074301,null,"<div style=""font-size:42px;"">MONARCH</div><img id = ""stim"" ><div class = green_square id = bottomsquare></div>",null,encoding,word_square,,,1,bottomsquare,32,true,,,MONARCH,6,,,
html-keyboard-response,708,1074615,null,"<div style=""font-size:42px;"">MONARCH</div>",null,,word,MONARCH,,,,,,,,,,,,
html-keyboard-response,709,1076134,21.30000001192093,"",32,,word,MONARCH,,,,,,,,,,,,
html-keyboard-response,710,1076341,null,"<div style=""font-size:42px;"">TURNIP</div><img id = ""stim"" ><div class = green_square id = topsquare></div>",null,encoding,word_square,,,1,topsquare,32,true,,,TURNIP,6,,,
html-keyboard-response,711,1076651,null,"<div style=""font-size:42px;"">TURNIP</div>",null,,word,TURNIP,,,,,,,,,,,,
html-keyboard-response,712,1078161,100.5,"",32,,word,TURNIP,,,,,,,,,,,,
html-keyboard-response,713,1078368,null,"<div style=""font-size:42px;"">STOCKING</div><img id = ""stim"" ><div class = red_square id = topsquare></div>",null,encoding,word_square,,,0,topsquare,none,true,,,STOCKING,6,,,
html-keyboard-response,714,1078786,null,"<div style=""font-size:42px;"">STOCKING</div>",null,,word,STOCKING,,,,,,,,,,,,
html-keyboard-response,715,1080299,null,"",null,,word,STOCKING,,,,,,,,,,,,
html-keyboard-response,716,1080517,null,"<div style=""font-size:42px;"">HAND</div><img id = ""stim"" ><div class = red_square id = bottomsquare></div>",null,encoding,word_square,,,0,bottomsquare,none,true,,,HAND,6,,,
html-keyboard-response,717,1080834,null,"<div style=""font-size:42px;"">HAND</div>",null,,word,HAND,,,,,,,,,,,,
html-keyboard-response,718,1082351,null,"",null,,word,HAND,,,,,,,,,,,,
html-keyboard-response,719,1082566,null,"<div style=""font-size:42px;"">CHARCOAL</div><img id = ""stim"" ><div class = red_square id = topsquare></div>",null,encoding,word_square,,,0,topsquare,none,true,,,CHARCOAL,6,,,
html-keyboard-response,720,1082881,null,"<div style=""font-size:42px;"">CHARCOAL</div>",null,,word,CHARCOAL,,,,,,,,,,,,
html-keyboard-response,721,1084392,null,"",null,,word,CHARCOAL,,,,,,,,,,,,
html-keyboard-response,722,1084615,null,"<div style=""font-size:42px;"">BELLY</div><img id = ""stim"" ><div class = green_square id = bottomsquare></div>",null,encoding,word_square,,,1,bottomsquare,32,true,,,BELLY,6,,,
html-keyboard-response,723,1084919,300.69999998807907,"<div style=""font-size:42px;"">BELLY</div>",32,,word,BELLY,,,,,,,,,,,,
html-keyboard-response,724,1086430,null,"",null,,word,BELLY,,,,,,,,,,,,
html-keyboard-response,725,1086640,null,"<div style=""font-size:42px;"">MASK</div><img id = ""stim"" ><div class = red_square id = bottomsquare></div>",null,encoding,word_square,,,0,bottomsquare,none,true,,,MASK,6,,,
html-keyboard-response,726,1086948,null,"<div style=""font-size:42px;"">MASK</div>",null,,word,MASK,,,,,,,,,,,,
html-keyboard-response,727,1088461,null,"",null,,word,MASK,,,,,,,,,,,,
html-keyboard-response,728,1088680,null,"<div style=""font-size:42px;"">ISLAND</div><img id = ""stim"" ><div class = red_square id = topsquare></div>",null,encoding,word_square,,,0,topsquare,none,true,,,ISLAND,6,,,
html-keyboard-response,729,1088996,null,"<div style=""font-size:42px;"">ISLAND</div>",null,,word,ISLAND,,,,,,,,,,,,
html-keyboard-response,730,1090511,null,"",null,,word,ISLAND,,,,,,,,,,,,
html-keyboard-response,731,1090731,null,"<div style=""font-size:42px;"">PRINCESS</div><img id = ""stim"" ><div class = green_square id = topsquare></div>",null,encoding,word_square,,,1,topsquare,32,true,,,PRINCESS,6,,,
html-keyboard-response,732,1091049,278.89999997615814,"<div style=""font-size:42px;"">PRINCESS</div>",32,,word,PRINCESS,,,,,,,,,,,,
html-keyboard-response,733,1092567,null,"",null,,word,PRINCESS,,,,,,,,,,,,
html-keyboard-response,734,1092775,null,"<div style=""font-size:42px;"">STREET</div><img id = ""stim"" ><div class = green_square id = bottomsquare></div>",null,encoding,word_square,,,1,bottomsquare,32,true,,,STREET,6,,,
html-keyboard-response,735,1093082,null,"<div style=""font-size:42px;"">STREET</div>",null,,word,STREET,,,,,,,,,,,,
html-keyboard-response,736,1094603,13.300000011920929,"",32,,word,STREET,,,,,,,,,,,,
call-function,737,1094606,,"",,,,,,,,,,,,,,,,
html-keyboard-response,738,1094719,null,"",null,,,,,,,,,,,,,,,
math-period,739,1097317,4293,"",,,,,,,,,,,2,,,,,
html-keyboard-response,740,1097425,null,"",null,,,,,,,,,,,,,,,
math-period,741,1099792,4165.299999952316,"",,,,,,,,,,,4,,,,,
html-keyboard-response,742,1099896,null,"",null,,,,,,,,,,,,,,,
math-period,743,1102819,4952.999999940395,"",,,,,,,,,,,4,,,,,
html-keyboard-response,744,1102930,null,"",null,,,,,,,,,,,,,,,
math-period,745,1105015,3402.699999988079,"",,,,,,,,,,,1,,,,,
html-keyboard-response,746,1105120,null,"",null,,,,,,,,,,,,,,,
math-period,747,1108256,5654.899999976158,"",,,,,,,,,,,0,,,,,
html-keyboard-response,748,1108359,null,"",null,,,,,,,,,,,,,,,
math-period,749,1110105,2855.100000023842,"",,,,,,,,,,,6,,,,,
html-keyboard-response,750,1110213,null,"",null,,,,,,,,,,,,,,,
math-period,751,1112332,3407.800000011921,"",,,,,,,,,,,1,,,,,
html-keyboard-response,752,1112437,null,"",null,,,,,,,,,,,,,,,
math-period,753,1114057,2646,"",,,,,,,,,,,4,,,,,
html-keyboard-response,754,1114169,null,"",null,,,,,,,,,,,,,,,
math-period,755,1116030,3059.5000000596046,"",,,,,,,,,,,6,,,,,
html-keyboard-response,756,1116138,null,"",null,,,,,,,,,,,,,,,
math-period,757,1118177,3357,"",,,,,,,,,,,1,,,,,
html-keyboard-response,758,1118285,null,"",null,,,,,,,,,,,,,,,
math-period,759,1118621,null,"",,,,,,,,,,,,,,,,
html-keyboard-response,760,1119628,null,"Recall Period!",null,,,,,,,,,,,,,,,
call-function,761,1119629,,"",,,,,,,,,,,,,,,,
html-keyboard-response,762,1119743,null,"",null,,,,,,,,,,,,,,,
recall-period,763,1123011,15739.999999940395,"",,,,,,,,,,,bison,,,,,
html-keyboard-response,764,1123122,null,"",null,,,,,,,,,,,,,,,
recall-period,765,1127848,29217.69999986887,"",,,,,,,,,,,monarch,,,,,
html-keyboard-response,766,1127965,null,"",null,,,,,,,,,,,,,,,
recall-period,767,1130835,19371.80000025034,"",,,,,,,,,,,transplant,,,,,
html-keyboard-response,768,1130950,null,"",null,,,,,,,,,,,,,,,
recall-period,769,1140457,78212.09999984503,"",,,,,,,,,,,princess,,,,,
html-keyboard-response,770,1140565,null,"",null,,,,,,,,,,,,,,,
recall-period,771,1142282,7011.100000202656,"",,,,,,,,,,,street,,,,,
html-keyboard-response,772,1142387,null,"",null,,,,,,,,,,,,,,,
recall-period,773,1152060,59376.70000016689,"",,,,,,,,,,,cattle,,,,,
html-keyboard-response,774,1152173,null,"",null,,,,,,,,,,,,,,,
recall-period,775,1194645,null,"",,,,,,,,,,,,,,,,
html-keyboard-response,776,1195156,null,"Time's Up!",null,,,,,,,,,,,,,,,
html-keyboard-response,777,1197532,2370,"<p> Good job! You have responded correctly to 99% of the trials. </p>
                      <p>Be sure to only press the spacebar if you see a GREEN square, and please keep your accuracy above 80%.</p>
                      <p> Press any key to continue the experiment. </p>",32,,,,,,,,,,,,,,,
html-keyboard-response,778,1206125,8588.600000023842,"<div style=""font-size:48px;"">Press any key to begin list 8 of 16 </div>",32,,,,,,,,,,,,,,,
html-keyboard-response,779,1208644,null,"<div style=""font-size:60px;"">+</div>",null,,,,,,,,,,,,,,,
html-keyboard-response,780,1208864,null,"<div style=""font-size:42px;"">STOMACH</div><img id = ""stim"" ><div class = green_square id = bottomsquare></div>",null,encoding,word_square,,,1,bottomsquare,32,true,,,STOMACH,7,,,
html-keyboard-response,781,1209178,null,"<div style=""font-size:42px;"">STOMACH</div>",null,,word,STOMACH,,,,,,,,,,,,
html-keyboard-response,782,1210684,274.89999997615814,"",32,,word,STOMACH,,,,,,,,,,,,
html-keyboard-response,783,1210900,null,"<div style=""font-size:42px;"">ULCER</div><img id = ""stim"" ><div class = green_square id = topsquare></div>",null,encoding,word_square,,,1,topsquare,32,true,,,ULCER,7,,,
html-keyboard-response,784,1211216,null,"<div style=""font-size:42px;"">ULCER</div>",null,,word,ULCER,,,,,,,,,,,,
html-keyboard-response,785,1212739,57.10000002384186,"",32,,word,ULCER,,,,,,,,,,,,
html-keyboard-response,786,1212962,null,"<div style=""font-size:42px;"">EUROPE</div><img id = ""stim"" ><div class = red_square id = topsquare></div>",null,encoding,word_square,,,0,topsquare,none,true,,,EUROPE,7,,,
html-keyboard-response,787,1213271,null,"<div style=""font-size:42px;"">EUROPE</div>",null,,word,EUROPE,,,,,,,,,,,,
html-keyboard-response,788,1214778,null,"",null,,word,EUROPE,,,,,,,,,,,,
html-keyboard-response,789,1214995,null,"<div style=""font-size:42px;"">GRAVE</div><img id = ""stim"" ><div class = red_square id = bottomsquare></div>",null,encoding,word_square,,,0,bottomsquare,none,true,,,GRAVE,7,,,
html-keyboard-response,790,1215305,null,"<div style=""font-size:42px;"">GRAVE</div>",null,,word,GRAVE,,,,,,,,,,,,
html-keyboard-response,791,1216809,null,"",null,,word,GRAVE,,,,,,,,,,,,
html-keyboard-response,792,1217027,null,"<div style=""font-size:42px;"">TOMBSTONE</div><img id = ""stim"" ><div class = green_square id = bottomsquare></div>",null,encoding,word_square,,,1,bottomsquare,32,true,,,TOMBSTONE,7,,,
html-keyboard-response,793,1217334,null,"<div style=""font-size:42px;"">TOMBSTONE</div>",null,,word,TOMBSTONE,,,,,,,,,,,,
html-keyboard-response,794,1218844,100.30000001192093,"",32,,word,TOMBSTONE,,,,,,,,,,,,
html-keyboard-response,795,1219050,null,"<div style=""font-size:42px;"">TRUCK</div><img id = ""stim"" ><div class = red_square id = topsquare></div>",null,encoding,word_square,,,0,topsquare,none,true,,,TRUCK,7,,,
html-keyboard-response,796,1219365,null,"<div style=""font-size:42px;"">TRUCK</div>",null,,word,TRUCK,,,,,,,,,,,,
html-keyboard-response,797,1220883,null,"",null,,word,TRUCK,,,,,,,,,,,,
html-keyboard-response,798,1221092,null,"<div style=""font-size:42px;"">EYELASH</div><img id = ""stim"" ><div class = red_square id = bottomsquare></div>",null,encoding,word_square,,,0,bottomsquare,none,true,,,EYELASH,7,,,
html-keyboard-response,799,1221400,null,"<div style=""font-size:42px;"">EYELASH</div>",null,,word,EYELASH,,,,,,,,,,,,
html-keyboard-response,800,1222919,null,"",null,,word,EYELASH,,,,,,,,,,,,
html-keyboard-response,801,1223125,null,"<div style=""font-size:42px;"">FROG</div><img id = ""stim"" ><div class = red_square id = topsquare></div>",null,encoding,word_square,,,0,topsquare,none,true,,,FROG,7,,,
html-keyboard-response,802,1223437,null,"<div style=""font-size:42px;"">FROG</div>",null,,word,FROG,,,,,,,,,,,,
html-keyboard-response,803,1224957,null,"",null,,word,FROG,,,,,,,,,,,,
html-keyboard-response,804,1225172,null,"<div style=""font-size:42px;"">OX</div><img id = ""stim"" ><div class = green_square id = topsquare></div>",null,encoding,word_square,,,1,topsquare,32,true,,,OX,7,,,
html-keyboard-response,805,1225489,null,"<div style=""font-size:42px;"">OX</div>",null,,word,OX,,,,,,,,,,,,
html-keyboard-response,806,1227004,158.19999998807907,"",32,,word,OX,,,,,,,,,,,,
html-keyboard-response,807,1227220,null,"<div style=""font-size:42px;"">CAFE</div><img id = ""stim"" ><div class = green_square id = bottomsquare></div>",null,encoding,word_square,,,1,bottomsquare,32,true,,,CAFE,7,,,
html-keyboard-response,808,1227536,290.19999998807907,"<div style=""font-size:42px;"">CAFE</div>",32,,word,CAFE,,,,,,,,,,,,
html-keyboard-response,809,1229053,null,"",null,,word,CAFE,,,,,,,,,,,,
html-keyboard-response,810,1229263,null,"<div style=""font-size:42px;"">BRANDY</div><img id = ""stim"" ><div class = red_square id = bottomsquare></div>",null,encoding,word_square,,,0,bottomsquare,none,true,,,BRANDY,7,,,
html-keyboard-response,811,1229572,null,"<div style=""font-size:42px;"">BRANDY</div>",null,,word,BRANDY,,,,,,,,,,,,
html-keyboard-response,812,1231079,null,"",null,,word,BRANDY,,,,,,,,,,,,
html-keyboard-response,813,1231298,null,"<div style=""font-size:42px;"">BEETLE</div><img id = ""stim"" ><div class = green_square id = topsquare></div>",null,encoding,word_square,,,1,topsquare,32,true,,,BEETLE,7,,,
html-keyboard-response,814,1231606,247.10000002384186,"<div style=""font-size:42px;"">BEETLE</div>",32,,word,BEETLE,,,,,,,,,,,,
html-keyboard-response,815,1233113,null,"",null,,word,BEETLE,,,,,,,,,,,,
html-keyboard-response,816,1233333,null,"<div style=""font-size:42px;"">FLASK</div><img id = ""stim"" ><div class = red_square id = topsquare></div>",null,encoding,word_square,,,0,topsquare,none,true,,,FLASK,7,,,
html-keyboard-response,817,1233650,null,"<div style=""font-size:42px;"">FLASK</div>",null,,word,FLASK,,,,,,,,,,,,
html-keyboard-response,818,1235167,null,"",null,,word,FLASK,,,,,,,,,,,,
html-keyboard-response,819,1235385,null,"<div style=""font-size:42px;"">BROOK</div><img id = ""stim"" ><div class = green_square id = bottomsquare></div>",null,encoding,word_square,,,1,bottomsquare,32,true,,,BROOK,7,,,
html-keyboard-response,820,1235699,null,"<div style=""font-size:42px;"">BROOK</div>",null,,word,BROOK,,,,,,,,,,,,
html-keyboard-response,821,1237217,21.5,"",32,,word,BROOK,,,,,,,,,,,,
html-keyboard-response,822,1237424,null,"<div style=""font-size:42px;"">COLESLAW</div><img id = ""stim"" ><div class = green_square id = topsquare></div>",null,encoding,word_square,,,1,topsquare,32,true,,,COLESLAW,7,,,
html-keyboard-response,823,1237731,301.19999998807907,"<div style=""font-size:42px;"">COLESLAW</div>",32,,word,COLESLAW,,,,,,,,,,,,
html-keyboard-response,824,1239238,null,"",null,,word,COLESLAW,,,,,,,,,,,,
html-keyboard-response,825,1239456,null,"<div style=""font-size:42px;"">COUNTRY</div><img id = ""stim"" ><div class = red_square id = bottomsquare></div>",null,encoding,word_square,,,0,bottomsquare,none,true,,,COUNTRY,7,,,
html-keyboard-response,826,1239774,null,"<div style=""font-size:42px;"">COUNTRY</div>",null,,word,COUNTRY,,,,,,,,,,,,
html-keyboard-response,827,1241287,null,"",null,,word,COUNTRY,,,,,,,,,,,,
call-function,828,1241291,,"",,,,,,,,,,,,,,,,
html-keyboard-response,829,1241401,null,"",null,,,,,,,,,,,,,,,
math-period,830,1244355,5189.200000047684,"",,,,,,,,,,,0,,,,,
html-keyboard-response,831,1244468,null,"",null,,,,,,,,,,,,,,,
math-period,832,1246781,3976.099999964237,"",,,,,,,,,,,4,,,,,
html-keyboard-response,833,1246894,null,"",null,,,,,,,,,,,,,,,
math-period,834,1249820,5424.400000035763,"",,,,,,,,,,,0,,,,,
html-keyboard-response,835,1249926,null,"",null,,,,,,,,,,,,,,,
math-period,836,1251839,3648.800000011921,"",,,,,,,,,,,2,,,,,
html-keyboard-response,837,1251975,null,"",null,,,,,,,,,,,,,,,
math-period,838,1253611,3098.0000000596046,"",,,,,,,,,,,4,,,,,
html-keyboard-response,839,1253725,null,"",null,,,,,,,,,,,,,,,
math-period,840,1254801,2002.9000000357628,"",,,,,,,,,,,2,,,,,
html-keyboard-response,841,1254908,null,"",null,,,,,,,,,,,,,,,
math-period,842,1256679,3378.099999964237,"",,,,,,,,,,,5,,,,,
html-keyboard-response,843,1256786,null,"",null,,,,,,,,,,,,,,,
math-period,844,1259014,4309.300000011921,"",,,,,,,,,,,4,,,,,
html-keyboard-response,845,1259119,null,"",null,,,,,,,,,,,,,,,
math-period,846,1261273,4117.800000011921,"",,,,,,,,,,,5,,,,,
html-keyboard-response,847,1261390,null,"",null,,,,,,,,,,,,,,,
math-period,848,1263061,3178.600000023842,"",,,,,,,,,,,2,,,,,
html-keyboard-response,849,1263166,null,"",null,,,,,,,,,,,,,,,
math-period,850,1264655,2834.2999999523163,"",,,,,,,,,,,4,,,,,
html-keyboard-response,851,1264762,null,"",null,,,,,,,,,,,,,,,
math-period,852,1265305,null,"",,,,,,,,,,,,,,,,
html-keyboard-response,853,1266323,null,"Recall Period!",null,,,,,,,,,,,,,,,
call-function,854,1266326,,"",,,,,,,,,,,,,,,,
html-keyboard-response,855,1266445,null,"",null,,,,,,,,,,,,,,,
recall-period,856,1275152,114858.69999974966,"",,,,,,,,,,,beetle,,,,,
html-keyboard-response,857,1275256,null,"",null,,,,,,,,,,,,,,,
recall-period,858,1278051,13719.399999856949,"",,,,,,,,,,,europe,,,,,
html-keyboard-response,859,1278168,null,"",null,,,,,,,,,,,,,,,
recall-period,860,1280054,7496.799999952316,"",,,,,,,,,,,grave,,,,,
html-keyboard-response,861,1280170,null,"",null,,,,,,,,,,,,,,,
recall-period,862,1287229,66400.90000033379,"",,,,,,,,,,,stomach,,,,,
html-keyboard-response,863,1287348,null,"",null,,,,,,,,,,,,,,,
recall-period,864,1289563,8879.500000059605,"",,,,,,,,,,,ulcer,,,,,
html-keyboard-response,865,1289677,null,"",null,,,,,,,,,,,,,,,
recall-period,866,1294238,23831.599999964237,"",,,,,,,,,,,brandy,,,,,
html-keyboard-response,867,1294345,null,"",null,,,,,,,,,,,,,,,
recall-period,868,1300715,29263.799999952316,"",,,,,,,,,,,frog,,,,,
html-keyboard-response,869,1300821,null,"",null,,,,,,,,,,,,,,,
recall-period,870,1303234,6215.5,"",,,,,,,,,,,ox,,,,,
html-keyboard-response,871,1303340,null,"",null,,,,,,,,,,,,,,,
recall-period,872,1341337,null,"",,,,,,,,,,,,,,,,
html-keyboard-response,873,1341848,null,"Time's Up!",null,,,,,,,,,,,,,,,
html-keyboard-response,874,1344109,2256,"<p> Good job! You have responded correctly to 99% of the trials. </p>
                      <p>Be sure to only press the spacebar if you see a GREEN square, and please keep your accuracy above 80%.</p>
                      <p> Press any key to continue the experiment. </p>",32,,,,,,,,,,,,,,,
html-keyboard-response,875,1346173,2058.899999976158,"<div style=""font-size:48px;"">Press any key to begin list 9 of 16 </div>",32,,,,,,,,,,,,,,,
html-keyboard-response,876,1348708,null,"<div style=""font-size:60px;"">+</div>",null,,,,,,,,,,,,,,,
html-keyboard-response,877,1348955,null,"<div style=""font-size:42px;"">SCHOOL</div><img id = ""stim"" ><div class = green_square id = topsquare></div>",null,encoding,word_square,,,1,topsquare,32,true,,,SCHOOL,8,,,
html-keyboard-response,878,1349268,null,"<div style=""font-size:42px;"">SCHOOL</div>",null,,word,SCHOOL,,,,,,,,,,,,
html-keyboard-response,879,1350781,1242.1000000238419,"",32,,word,SCHOOL,,,,,,,,,,,,
html-keyboard-response,880,1350988,null,"<div style=""font-size:42px;"">SHELF</div><img id = ""stim"" ><div class = red_square id = bottomsquare></div>",null,encoding,word_square,,,0,bottomsquare,none,true,,,SHELF,8,,,
html-keyboard-response,881,1351299,6.600000023841858,"<div style=""font-size:42px;"">SHELF</div>",32,,word,SHELF,,,,,,,,,,,,
html-keyboard-response,882,1352815,null,"",null,,word,SHELF,,,,,,,,,,,,
html-keyboard-response,883,1353033,null,"<div style=""font-size:42px;"">PREACHER</div><img id = ""stim"" ><div class = red_square id = topsquare></div>",null,encoding,word_square,,,0,topsquare,none,true,,,PREACHER,8,,,
html-keyboard-response,884,1353347,null,"<div style=""font-size:42px;"">PREACHER</div>",null,,word,PREACHER,,,,,,,,,,,,
html-keyboard-response,885,1354855,null,"",null,,word,PREACHER,,,,,,,,,,,,
html-keyboard-response,886,1355072,null,"<div style=""font-size:42px;"">PATIENT</div><img id = ""stim"" ><div class = green_square id = bottomsquare></div>",null,encoding,word_square,,,1,bottomsquare,32,true,,,PATIENT,8,,,
html-keyboard-response,887,1355386,null,"<div style=""font-size:42px;"">PATIENT</div>",null,,word,PATIENT,,,,,,,,,,,,
html-keyboard-response,888,1356903,0.2999999523162842,"",32,,word,PATIENT,,,,,,,,,,,,
html-keyboard-response,889,1357118,null,"<div style=""font-size:42px;"">STRANGER</div><img id = ""stim"" ><div class = green_square id = topsquare></div>",null,encoding,word_square,,,1,topsquare,32,true,,,STRANGER,8,,,
html-keyboard-response,890,1357444,null,"<div style=""font-size:42px;"">STRANGER</div>",null,,word,STRANGER,,,,,,,,,,,,
html-keyboard-response,891,1358958,13,"",32,,word,STRANGER,,,,,,,,,,,,
html-keyboard-response,892,1359177,null,"<div style=""font-size:42px;"">SNACK</div><img id = ""stim"" ><div class = red_square id = bottomsquare></div>",null,encoding,word_square,,,0,bottomsquare,none,true,,,SNACK,8,,,
html-keyboard-response,893,1359486,null,"<div style=""font-size:42px;"">SNACK</div>",null,,word,SNACK,,,,,,,,,,,,
html-keyboard-response,894,1361008,null,"",null,,word,SNACK,,,,,,,,,,,,
html-keyboard-response,895,1361228,null,"<div style=""font-size:42px;"">AIRCRAFT</div><img id = ""stim"" ><div class = green_square id = bottomsquare></div>",null,encoding,word_square,,,1,bottomsquare,32,true,,,AIRCRAFT,8,,,
html-keyboard-response,896,1361537,null,"<div style=""font-size:42px;"">AIRCRAFT</div>",null,,word,AIRCRAFT,,,,,,,,,,,,
html-keyboard-response,897,1363058,0.30000001192092896,"",32,,word,AIRCRAFT,,,,,,,,,,,,
html-keyboard-response,898,1363277,null,"<div style=""font-size:42px;"">MOTOR</div><img id = ""stim"" ><div class = red_square id = topsquare></div>",null,encoding,word_square,,,0,topsquare,none,true,,,MOTOR,8,,,
html-keyboard-response,899,1363587,null,"<div style=""font-size:42px;"">MOTOR</div>",null,,word,MOTOR,,,,,,,,,,,,
html-keyboard-response,900,1365101,null,"",null,,word,MOTOR,,,,,,,,,,,,
html-keyboard-response,901,1365316,null,"<div style=""font-size:42px;"">CHICKEN</div><img id = ""stim"" ><div class = red_square id = bottomsquare></div>",null,encoding,word_square,,,0,bottomsquare,none,true,,,CHICKEN,8,,,
html-keyboard-response,902,1365633,null,"<div style=""font-size:42px;"">CHICKEN</div>",null,,word,CHICKEN,,,,,,,,,,,,
html-keyboard-response,903,1367149,null,"",null,,word,CHICKEN,,,,,,,,,,,,
html-keyboard-response,904,1367356,null,"<div style=""font-size:42px;"">CHAMPAGNE</div><img id = ""stim"" ><div class = green_square id = topsquare></div>",null,encoding,word_square,,,1,topsquare,32,true,,,CHAMPAGNE,8,,,
