trial_type,trial_index,time_elapsed,rt,stimulus,key_press,exp_phase,test_part,word,task,targ_cond,sq_pos,correctKeyCode,correct,value,response,Word,List,RecResp,serial_pos,colorChosen
pavlovia,0,2473,,"",,,,,,,,,,,,,,,,
external-html,1,222759,220114.89999997616,"",,,,,,,,,,,,,,,,
html-keyboard-response,2,227186,4425.399999976158,"Welcome to the experiment. Press any key to begin.",32,,,,,,,,,,,,,,,
html-keyboard-response,3,252063,24876,"<p>You will see a list of words and colored squares in the following task.<p><p>Press the spacebar whenever you see a GREEN square.<p><p>Do not press a key if the square is RED.<p><p>Press the spacebar to continue.</p>",32,,,,,,,,,,,,,,,
html-keyboard-response,4,261669,9094,"<p>Please try to remember as many of the words as you can, and try to think about the meaning of each word as it appears.<p><p>After the detection and encoding task you will be asked to solve some math problems for 24 seconds.<p> Please solve as many problems as you can in the time given. <p><p><p>Press the spacebar to continue.</p>",32,,,,,,,,,,,,,,,
html-keyboard-response,5,269512,7341.700000047684,"After solving the math problems, you will be asked to type in as many words <p>from the previous list as you can remember for 75 seconds.<p> If you finish recalling before the 75 seconds are up,<p> just sit tight and try to think of any more words you could have missed. <p><p><p>Press the spacebar to continue.</p>",32,,,,,,,,,,,,,,,
html-keyboard-response,6,282409,12394.100000023842,"There will be 16 lists of words and recall, followed  by<p><p> a recognition phase. The experiment is expected to take up to 90 minutes.<p>We will begin with a brief practice session.<p>Press the spacebar to begin the practice.</p>",32,,,,,,,,,,,,,,,
html-keyboard-response,7,284929,null,"<div style=""font-size:60px;"">+</div>",null,,,,,,,,,,,,,,,
html-keyboard-response,8,285147,null,"<div style=""font-size:42px;"">HAPPY</div><img id = ""stim"" ><div class = red_square id = ""bottomsquare"" ></div>",null,practice,word_square,HAPPY,prac_response,0,Bottom,none,true,,,,,,,
html-keyboard-response,9,285457,null,"<div style=""font-size:42px;"">HAPPY</div>",null,,word,HAPPY,,,,,,,,,,,,
html-keyboard-response,10,286966,null,"",null,,word,HAPPY,,,,,,,,,,,,
html-keyboard-response,11,287170,null,"<div style=""font-size:42px;"">COLD</div><img id = ""stim"" ><div class = green_square id = ""bottomsquare"" ></div>",null,practice,word_square,COLD,prac_response,1,Bottom,32,true,,,,,,,
html-keyboard-response,12,287484,null,"<div style=""font-size:42px;"">COLD</div>",null,,word,COLD,,,,,,,,,,,,
html-keyboard-response,13,288997,0.8999999761581421,"",32,,word,COLD,,,,,,,,,,,,
html-keyboard-response,14,289200,null,"<div style=""font-size:42px;"">HEAVY</div><img id = ""stim"" ><div class = green_square id = ""topsquare"" ></div>",null,practice,word_square,HEAVY,prac_response,1,Top,32,true,,,,,,,
html-keyboard-response,15,289511,237.80000007152557,"<div style=""font-size:42px;"">HEAVY</div>",32,,word,HEAVY,,,,,,,,,,,,
html-keyboard-response,16,291024,null,"",null,,word,HEAVY,,,,,,,,,,,,
html-keyboard-response,17,291226,null,"<div style=""font-size:42px;"">FUNNY</div><img id = ""stim"" ><div class = red_square id = ""topsquare"" ></div>",null,practice,word_square,FUNNY,prac_response,0,Top,none,true,,,,,,,
html-keyboard-response,18,291539,null,"<div style=""font-size:42px;"">FUNNY</div>",null,,word,FUNNY,,,,,,,,,,,,
html-keyboard-response,19,293053,null,"",null,,word,FUNNY,,,,,,,,,,,,
html-keyboard-response,20,293257,null,"<div style=""font-size:42px;"">SCARY</div><img id = ""stim"" ><div class = green_square id = ""bottomsquare"" ></div>",null,practice,word_square,SCARY,prac_response,1,Bottom,32,true,,,,,,,
html-keyboard-response,21,293568,145,"<div style=""font-size:42px;"">SCARY</div>",32,,word,SCARY,,,,,,,,,,,,
html-keyboard-response,22,295083,null,"",null,,word,SCARY,,,,,,,,,,,,
html-keyboard-response,23,295286,null,"<div style=""font-size:42px;"">PEACEFUL</div><img id = ""stim"" ><div class = green_square id = ""topsquare"" ></div>",null,practice,word_square,PEACEFUL,prac_response,1,Top,32,true,,,,,,,
html-keyboard-response,24,295598,171.89999997615814,"<div style=""font-size:42px;"">PEACEFUL</div>",32,,word,PEACEFUL,,,,,,,,,,,,
html-keyboard-response,25,297112,null,"",null,,word,PEACEFUL,,,,,,,,,,,,
html-keyboard-response,26,297314,null,"<div style=""font-size:42px;"">LITTLE</div><img id = ""stim"" ><div class = red_square id = ""bottomsquare"" ></div>",null,practice,word_square,LITTLE,prac_response,0,Bottom,none,true,,,,,,,
html-keyboard-response,27,297626,null,"<div style=""font-size:42px;"">LITTLE</div>",null,,word,LITTLE,,,,,,,,,,,,
html-keyboard-response,28,299137,null,"",null,,word,LITTLE,,,,,,,,,,,,
html-keyboard-response,29,299340,null,"<div style=""font-size:42px;"">TIRED</div><img id = ""stim"" ><div class = red_square id = ""topsquare"" ></div>",null,practice,word_square,TIRED,prac_response,0,Top,none,true,,,,,,,
html-keyboard-response,30,299652,null,"<div style=""font-size:42px;"">TIRED</div>",null,,word,TIRED,,,,,,,,,,,,
html-keyboard-response,31,301164,null,"",null,,word,TIRED,,,,,,,,,,,,
html-keyboard-response,32,301366,null,"<div style=""font-size:42px;"">ENTERTAINING</div><img id = ""stim"" ><div class = red_square id = ""bottomsquare"" ></div>",null,practice,word_square,ENTERTAINING,prac_response,0,Bottom,none,true,,,,,,,
html-keyboard-response,33,301678,null,"<div style=""font-size:42px;"">ENTERTAINING</div>",null,,word,ENTERTAINING,,,,,,,,,,,,
html-keyboard-response,34,303190,null,"",null,,word,ENTERTAINING,,,,,,,,,,,,
html-keyboard-response,35,303393,null,"<div style=""font-size:42px;"">GRATEFUL</div><img id = ""stim"" ><div class = green_square id = ""bottomsquare"" ></div>",null,practice,word_square,GRATEFUL,prac_response,1,Bottom,32,true,,,,,,,
html-keyboard-response,36,303705,182.19999992847443,"<div style=""font-size:42px;"">GRATEFUL</div>",32,,word,GRATEFUL,,,,,,,,,,,,
html-keyboard-response,37,305216,null,"",null,,word,GRATEFUL,,,,,,,,,,,,
html-keyboard-response,38,305419,null,"<div style=""font-size:42px;"">LOUD</div><img id = ""stim"" ><div class = red_square id = ""topsquare"" ></div>",null,practice,word_square,LOUD,prac_response,0,Top,none,true,,,,,,,
html-keyboard-response,39,305731,null,"<div style=""font-size:42px;"">LOUD</div>",null,,word,LOUD,,,,,,,,,,,,
html-keyboard-response,40,307243,null,"",null,,word,LOUD,,,,,,,,,,,,
html-keyboard-response,41,307448,null,"<div style=""font-size:42px;"">SMART</div><img id = ""stim"" ><div class = green_square id = ""topsquare"" ></div>",null,practice,word_square,SMART,prac_response,1,Top,32,true,,,,,,,
html-keyboard-response,42,307760,167.89999997615814,"<div style=""font-size:42px;"">SMART</div>",32,,word,SMART,,,,,,,,,,,,
html-keyboard-response,43,309271,null,"",null,,word,SMART,,,,,,,,,,,,
html-keyboard-response,44,309475,null,"<div style=""font-size:42px;"">SMOOTH</div><img id = ""stim"" ><div class = green_square id = ""bottomsquare"" ></div>",null,practice,word_square,SMOOTH,prac_response,1,Bottom,32,true,,,,,,,
html-keyboard-response,45,309785,108.79999995231628,"<div style=""font-size:42px;"">SMOOTH</div>",32,,word,SMOOTH,,,,,,,,,,,,
html-keyboard-response,46,311292,null,"",null,,word,SMOOTH,,,,,,,,,,,,
html-keyboard-response,47,311510,null,"<div style=""font-size:42px;"">DISHONEST</div><img id = ""stim"" ><div class = red_square id = ""bottomsquare"" ></div>",null,practice,word_square,DISHONEST,prac_response,0,Bottom,none,true,,,,,,,
html-keyboard-response,48,311824,null,"<div style=""font-size:42px;"">DISHONEST</div>",null,,word,DISHONEST,,,,,,,,,,,,
html-keyboard-response,49,313337,null,"",null,,word,DISHONEST,,,,,,,,,,,,
html-keyboard-response,50,313540,null,"<div style=""font-size:42px;"">WEALTHY</div><img id = ""stim"" ><div class = green_square id = ""topsquare"" ></div>",null,practice,word_square,WEALTHY,prac_response,1,Top,32,true,,,,,,,
html-keyboard-response,51,313851,114,"<div style=""font-size:42px;"">WEALTHY</div>",32,,word,WEALTHY,,,,,,,,,,,,
html-keyboard-response,52,315362,null,"",null,,word,WEALTHY,,,,,,,,,,,,
html-keyboard-response,53,315579,null,"<div style=""font-size:42px;"">BEAUTIFUL</div><img id = ""stim"" ><div class = red_square id = ""topsquare"" ></div>",null,practice,word_square,BEAUTIFUL,prac_response,0,Top,none,true,,,,,,,
html-keyboard-response,54,315887,null,"<div style=""font-size:42px;"">BEAUTIFUL</div>",null,,word,BEAUTIFUL,,,,,,,,,,,,
html-keyboard-response,55,317398,null,"",null,,word,BEAUTIFUL,,,,,,,,,,,,
html-keyboard-response,56,323943,6543.599999904633,"<p> Good job! You responded correctly to 100% of the trials. </p>
                  <p>Be sure to only press the spacebar if you see a GREEN square, and please keep your accuracy above 80%.</p>
                  <p>We're going to try once more to make sure you understand the task. press any key to continue. </p>",32,,,,,,,,,,,,,,,
html-keyboard-response,57,325837,1892.7999999523163,"<p>You will see a list of words and colored squares in the following task.<p><p>Press the spacebar whenever you see a GREEN square.<p><p>Do not press a key if the square is RED<p><p>Press the spacebar to continue.</p>",32,,,,,,,,,,,,,,,
html-keyboard-response,58,328363,null,"<div style=""font-size:60px;"">+</div>",null,,,,,,,,,,,,,,,
html-keyboard-response,59,328580,null,"<div style=""font-size:42px;"">HAPPY</div><img id = ""stim"" ><div class = red_square id = ""bottomsquare"" ></div>",null,practice2,word_square,HAPPY,prac_response,0,Bottom,none,true,,,,,,,
html-keyboard-response,60,328893,null,"<div style=""font-size:42px;"">HAPPY</div>",null,,word,HAPPY,,,,,,,,,,,,
html-keyboard-response,61,330403,null,"",null,,word,HAPPY,,,,,,,,,,,,
html-keyboard-response,62,330620,null,"<div style=""font-size:42px;"">COLD</div><img id = ""stim"" ><div class = green_square id = ""bottomsquare"" ></div>",null,practice2,word_square,,prac_response,1,Bottom,32,true,,,,,,,
html-keyboard-response,63,330932,74.09999990463257,"<div style=""font-size:42px;"">COLD</div>",32,,word,COLD,,,,,,,,,,,,
html-keyboard-response,64,332441,null,"",null,,word,COLD,,,,,,,,,,,,
html-keyboard-response,65,332644,null,"<div style=""font-size:42px;"">HEAVY</div><img id = ""stim"" ><div class = green_square id = ""topsquare"" ></div>",null,practice2,word_square,,prac_response,1,Top,32,true,,,,,,,
html-keyboard-response,66,332956,98.70000004768372,"<div style=""font-size:42px;"">HEAVY</div>",32,,word,HEAVY,,,,,,,,,,,,
html-keyboard-response,67,334466,null,"",null,,word,HEAVY,,,,,,,,,,,,
html-keyboard-response,68,334669,null,"<div style=""font-size:42px;"">FUNNY</div><img id = ""stim"" ><div class = red_square id = ""topsquare"" ></div>",null,practice2,word_square,,prac_response,0,Top,none,true,,,,,,,
html-keyboard-response,69,334982,null,"<div style=""font-size:42px;"">FUNNY</div>",null,,word,FUNNY,,,,,,,,,,,,
html-keyboard-response,70,336495,null,"",null,,word,FUNNY,,,,,,,,,,,,
html-keyboard-response,71,336698,null,"<div style=""font-size:42px;"">SCARY</div><img id = ""stim"" ><div class = green_square id = ""bottomsquare"" ></div>",null,practice2,word_square,,prac_response,1,Bottom,32,true,,,,,,,
html-keyboard-response,72,337009,106.30000007152557,"<div style=""font-size:42px;"">SCARY</div>",32,,word,SCARY,,,,,,,,,,,,
html-keyboard-response,73,338522,null,"",null,,word,SCARY,,,,,,,,,,,,
html-keyboard-response,74,338724,null,"<div style=""font-size:42px;"">PEACEFUL</div><img id = ""stim"" ><div class = green_square id = ""topsquare"" ></div>",null,practice2,word_square,,prac_response,1,Top,32,true,,,,,,,
html-keyboard-response,75,339036,119.39999997615814,"<div style=""font-size:42px;"">PEACEFUL</div>",32,,word,PEACEFUL,,,,,,,,,,,,
html-keyboard-response,76,340549,null,"",null,,word,PEACEFUL,,,,,,,,,,,,
html-keyboard-response,77,340751,null,"<div style=""font-size:42px;"">LITTLE</div><img id = ""stim"" ><div class = red_square id = ""bottomsquare"" ></div>",null,practice2,word_square,LITTLE,prac_response,0,Bottom,none,true,,,,,,,
html-keyboard-response,78,341063,null,"<div style=""font-size:42px;"">LITTLE</div>",null,,word,LITTLE,,,,,,,,,,,,
html-keyboard-response,79,342576,null,"",null,,word,LITTLE,,,,,,,,,,,,
html-keyboard-response,80,342780,null,"<div style=""font-size:42px;"">TIRED</div><img id = ""stim"" ><div class = red_square id = ""topsquare"" ></div>",null,practice2,word_square,,prac_response,0,Top,none,true,,,,,,,
html-keyboard-response,81,343091,null,"<div style=""font-size:42px;"">TIRED</div>",null,,word,TIRED,,,,,,,,,,,,
html-keyboard-response,82,344600,null,"",null,,word,TIRED,,,,,,,,,,,,
html-keyboard-response,83,344804,null,"<div style=""font-size:42px;"">ENTERTAINING</div><img id = ""stim"" ><div class = red_square id = ""bottomsquare"" ></div>",null,practice2,word_square,ENTERTAINING,prac_response,0,Bottom,none,true,,,,,,,
html-keyboard-response,84,345116,null,"<div style=""font-size:42px;"">ENTERTAINING</div>",null,,word,ENTERTAINING,,,,,,,,,,,,
html-keyboard-response,85,346627,null,"",null,,word,ENTERTAINING,,,,,,,,,,,,
html-keyboard-response,86,346841,null,"<div style=""font-size:42px;"">GRATEFUL</div><img id = ""stim"" ><div class = green_square id = ""bottomsquare"" ></div>",null,practice2,word_square,,prac_response,1,Bottom,32,true,,,,,,,
html-keyboard-response,87,347153,80.10000002384186,"<div style=""font-size:42px;"">GRATEFUL</div>",32,,word,GRATEFUL,,,,,,,,,,,,
html-keyboard-response,88,348667,null,"",null,,word,GRATEFUL,,,,,,,,,,,,
html-keyboard-response,89,348871,null,"<div style=""font-size:42px;"">LOUD</div><img id = ""stim"" ><div class = red_square id = ""topsquare"" ></div>",null,practice2,word_square,,prac_response,0,Top,none,true,,,,,,,
html-keyboard-response,90,349182,null,"<div style=""font-size:42px;"">LOUD</div>",null,,word,LOUD,,,,,,,,,,,,
html-keyboard-response,91,350697,null,"",null,,word,LOUD,,,,,,,,,,,,
html-keyboard-response,92,350900,null,"<div style=""font-size:42px;"">SMART</div><img id = ""stim"" ><div class = green_square id = ""topsquare"" ></div>",null,practice2,word_square,,prac_response,1,Top,32,true,,,,,,,
html-keyboard-response,93,351210,140.20000004768372,"<div style=""font-size:42px;"">SMART</div>",32,,word,SMART,,,,,,,,,,,,
html-keyboard-response,94,352721,null,"",null,,word,SMART,,,,,,,,,,,,
html-keyboard-response,95,352925,null,"<div style=""font-size:42px;"">SMOOTH</div><img id = ""stim"" ><div class = green_square id = ""bottomsquare"" ></div>",null,practice2,word_square,,prac_response,1,Bottom,32,true,,,,,,,
html-keyboard-response,96,353236,102.60000002384186,"<div style=""font-size:42px;"">SMOOTH</div>",32,,word,SMOOTH,,,,,,,,,,,,
html-keyboard-response,97,354747,null,"",null,,word,SMOOTH,,,,,,,,,,,,
html-keyboard-response,98,354951,null,"<div style=""font-size:42px;"">DISHONEST</div><img id = ""stim"" ><div class = red_square id = ""bottomsquare"" ></div>",null,practice2,word_square,DISHONEST,prac_response,0,Bottom,none,true,,,,,,,
html-keyboard-response,99,355261,null,"<div style=""font-size:42px;"">DISHONEST</div>",null,,word,DISHONEST,,,,,,,,,,,,
html-keyboard-response,100,356773,null,"",null,,word,DISHONEST,,,,,,,,,,,,
html-keyboard-response,101,356976,null,"<div style=""font-size:42px;"">WEALTHY</div><img id = ""stim"" ><div class = green_square id = ""topsquare"" ></div>",null,practice2,word_square,,prac_response,1,Top,32,true,,,,,,,
html-keyboard-response,102,357287,130.39999997615814,"<div style=""font-size:42px;"">WEALTHY</div>",32,,word,WEALTHY,,,,,,,,,,,,
html-keyboard-response,103,358797,null,"",null,,word,WEALTHY,,,,,,,,,,,,
html-keyboard-response,104,359000,null,"<div style=""font-size:42px;"">BEAUTIFUL</div><img id = ""stim"" ><div class = red_square id = ""topsquare"" ></div>",null,practice2,word_square,,prac_response,0,Top,none,false,,,,,,,
html-keyboard-response,105,359312,null,"<div style=""font-size:42px;"">BEAUTIFUL</div>",null,,word,BEAUTIFUL,,,,,,,,,,,,
html-keyboard-response,106,360827,null,"",null,,word,BEAUTIFUL,,,,,,,,,,,,
html-keyboard-response,107,365170,4342.200000047684,"<p> Good job! You responded correctly to 100% of the trials. </p>
                    <p>Be sure to only press the spacebar if you see a GREEN square, and please keep your accuracy above 80%.</p>
                    <p>Press any key to begin the math and recall sections. Thank you! </p>",32,,,,,,,,,,,,,,,
call-function,108,365170,,"",,,,,,,,,,,,,,,,
html-keyboard-response,109,365274,null,"",null,,,,,,,,,,,,,,,
math-period,110,369168,6338.600000143051,"",,,,,,,,,,,3,,,,,
html-keyboard-response,111,369278,null,"",null,,,,,,,,,,,,,,,
math-period,112,370997,3138.899999976158,"",,,,,,,,,,,4,,,,,
html-keyboard-response,113,371098,null,"",null,,,,,,,,,,,,,,,
math-period,114,373455,4494.600000023842,"",,,,,,,,,,,0,,,,,
html-keyboard-response,115,373565,null,"",null,,,,,,,,,,,,,,,
math-period,116,374988,2587.2999999523163,"",,,,,,,,,,,5,,,,,
html-keyboard-response,117,375097,null,"",null,,,,,,,,,,,,,,,
math-period,118,377061,3733.5999999046326,"",,,,,,,,,,,2,,,,,
html-keyboard-response,119,377168,null,"",null,,,,,,,,,,,,,,,
math-period,120,378886,3199.5,"",,,,,,,,,,,1,,,,,
html-keyboard-response,121,378999,null,"",null,,,,,,,,,,,,,,,
math-period,122,380173,2088.4000000953674,"",,,,,,,,,,,2,,,,,
html-keyboard-response,123,380274,null,"",null,,,,,,,,,,,,,,,
math-period,124,381966,3123.600000143051,"",,,,,,,,,,,4,,,,,
html-keyboard-response,125,382069,null,"",null,,,,,,,,,,,,,,,
math-period,126,383383,2464.7999999523163,"",,,,,,,,,,,5,,,,,
html-keyboard-response,127,383488,null,"",null,,,,,,,,,,,,,,,
math-period,128,384568,1943.299999833107,"",,,,,,,,,,,2,,,,,
html-keyboard-response,129,384672,null,"",null,,,,,,,,,,,,,,,
math-period,130,385798,2040.3000000715256,"",,,,,,,,,,,4,,,,,
html-keyboard-response,131,385903,null,"",null,,,,,,,,,,,,,,,
math-period,132,386872,1777.8999998569489,"",,,,,,,,,,,3,,,,,
html-keyboard-response,133,386980,null,"",null,,,,,,,,,,,,,,,
math-period,134,388787,3388.600000143051,"",,,,,,,,,,,3,,,,,
html-keyboard-response,135,388896,null,"",null,,,,,,,,,,,,,,,
math-period,136,389176,null,"",,,,,,,,,,,,,,,,
html-keyboard-response,137,390190,null,"Recall Period!",null,,,,,,,,,,,,,,,
call-function,138,390191,,"",,,,,,,,,,,,,,,,
html-keyboard-response,139,390292,null,"",null,,,,,,,,,,,,,,,
recall-period,140,394824,24510.89999973774,"",,,,,,,,,,,happy,,,,,
html-keyboard-response,141,394927,null,"",null,,,,,,,,,,,,,,,
recall-period,142,396077,3825.0000002384186,"",,,,,,,,,,,cold,,,,,
html-keyboard-response,143,396192,null,"",null,,,,,,,,,,,,,,,
recall-period,144,398140,10978,"",,,,,,,,,,,peaceful,,,,,
html-keyboard-response,145,398255,null,"",null,,,,,,,,,,,,,,,
recall-period,146,399279,3125.6000002622604,"",,,,,,,,,,,scary,,,,,
html-keyboard-response,147,399380,null,"",null,,,,,,,,,,,,,,,
recall-period,148,403165,20358.700000047684,"",,,,,,,,,,,heavy,,,,,
html-keyboard-response,149,403279,null,"",null,,,,,,,,,,,,,,,
recall-period,150,406558,12128.600000143051,"",,,,,,,,,,,cool,,,,,
html-keyboard-response,151,406660,null,"",null,,,,,,,,,,,,,,,
recall-period,152,465207,null,"",,,,,,,,,,,,,,,,
html-keyboard-response,153,465723,null,"Time's Up!",null,,,,,,,,,,,,,,,
html-keyboard-response,154,468952,3227.8000000715256,"<p>We will now begin the experiment!<p><p>Please try to remember all words from each list.<p><p>Press the spacebar whenever you see a GREEN square.<p><p><p><p>Press the spacebar to begin.</p>",32,,,,,,,,,,,,,,,
html-keyboard-response,155,471258,1805.0999999046326,"<div style=""font-size:48px;"">Press any key to begin list 1 of 16 </div>",32,,,,,,,,,,,,,,,
html-keyboard-response,156,473775,null,"<div style=""font-size:60px;"">+</div>",null,,,,,,,,,,,,,,,
html-keyboard-response,157,473979,null,"<div style=""font-size:42px;"">BROOK</div><img id = ""stim"" ><div class = green_square id = topsquare></div>",null,encoding,word_square,,,1,topsquare,32,true,,,BROOK,0,,,
html-keyboard-response,158,474290,137.60000002384186,"<div style=""font-size:42px;"">BROOK</div>",32,,word,BROOK,,,,,,,,,,,,
html-keyboard-response,159,475799,null,"",null,,word,BROOK,,,,,,,,,,,,
html-keyboard-response,160,476003,null,"<div style=""font-size:42px;"">PUDDLE</div><img id = ""stim"" ><div class = green_square id = bottomsquare></div>",null,encoding,word_square,,,1,bottomsquare,32,true,,,PUDDLE,0,,,
html-keyboard-response,161,476318,159.10000002384186,"<div style=""font-size:42px;"">PUDDLE</div>",32,,word,PUDDLE,,,,,,,,,,,,
html-keyboard-response,162,477829,null,"",null,,word,PUDDLE,,,,,,,,,,,,
html-keyboard-response,163,478031,null,"<div style=""font-size:42px;"">LAPEL</div><img id = ""stim"" ><div class = red_square id = bottomsquare></div>",null,encoding,word_square,,,0,bottomsquare,none,true,,,LAPEL,0,,,
html-keyboard-response,164,478344,null,"<div style=""font-size:42px;"">LAPEL</div>",null,,word,LAPEL,,,,,,,,,,,,
html-keyboard-response,165,479857,null,"",null,,word,LAPEL,,,,,,,,,,,,
html-keyboard-response,166,480074,null,"<div style=""font-size:42px;"">MUSTARD</div><img id = ""stim"" ><div class = red_square id = topsquare></div>",null,encoding,word_square,,,0,topsquare,none,true,,,MUSTARD,0,,,
html-keyboard-response,167,480384,null,"<div style=""font-size:42px;"">MUSTARD</div>",null,,word,MUSTARD,,,,,,,,,,,,
html-keyboard-response,168,481896,null,"",null,,word,MUSTARD,,,,,,,,,,,,
html-keyboard-response,169,482099,null,"<div style=""font-size:42px;"">BRACES</div><img id = ""stim"" ><div class = green_square id = topsquare></div>",null,encoding,word_square,,,1,topsquare,32,true,,,BRACES,0,,,
html-keyboard-response,170,482411,143.70000004768372,"<div style=""font-size:42px;"">BRACES</div>",32,,word,BRACES,,,,,,,,,,,,
html-keyboard-response,171,483922,null,"",null,,word,BRACES,,,,,,,,,,,,
html-keyboard-response,172,484124,null,"<div style=""font-size:42px;"">AWARD</div><img id = ""stim"" ><div class = green_square id = bottomsquare></div>",null,encoding,word_square,,,1,bottomsquare,32,true,,,AWARD,0,,,
html-keyboard-response,173,484438,150.39999997615814,"<div style=""font-size:42px;"">AWARD</div>",32,,word,AWARD,,,,,,,,,,,,
html-keyboard-response,174,485950,null,"",null,,word,AWARD,,,,,,,,,,,,
html-keyboard-response,175,486154,null,"<div style=""font-size:42px;"">LUMBER</div><img id = ""stim"" ><div class = red_square id = bottomsquare></div>",null,encoding,word_square,,,0,bottomsquare,none,true,,,LUMBER,0,,,
html-keyboard-response,176,486466,null,"<div style=""font-size:42px;"">LUMBER</div>",null,,word,LUMBER,,,,,,,,,,,,
html-keyboard-response,177,487978,null,"",null,,word,LUMBER,,,,,,,,,,,,
html-keyboard-response,178,488181,null,"<div style=""font-size:42px;"">STAR</div><img id = ""stim"" ><div class = green_square id = topsquare></div>",null,encoding,word_square,,,1,topsquare,32,true,,,STAR,0,,,
html-keyboard-response,179,488493,164.19999992847443,"<div style=""font-size:42px;"">STAR</div>",32,,word,STAR,,,,,,,,,,,,
html-keyboard-response,180,490007,null,"",null,,word,STAR,,,,,,,,,,,,
html-keyboard-response,181,490210,null,"<div style=""font-size:42px;"">BENCH</div><img id = ""stim"" ><div class = green_square id = bottomsquare></div>",null,encoding,word_square,,,1,bottomsquare,32,true,,,BENCH,0,,,
html-keyboard-response,182,490524,94.40000009536743,"<div style=""font-size:42px;"">BENCH</div>",32,,word,BENCH,,,,,,,,,,,,
html-keyboard-response,183,492032,null,"",null,,word,BENCH,,,,,,,,,,,,
html-keyboard-response,184,492235,null,"<div style=""font-size:42px;"">COFFIN</div><img id = ""stim"" ><div class = red_square id = topsquare></div>",null,encoding,word_square,,,0,topsquare,none,true,,,COFFIN,0,,,
html-keyboard-response,185,492549,null,"<div style=""font-size:42px;"">COFFIN</div>",null,,word,COFFIN,,,,,,,,,,,,
html-keyboard-response,186,494051,null,"",null,,word,COFFIN,,,,,,,,,,,,
html-keyboard-response,187,494254,null,"<div style=""font-size:42px;"">BANDIT</div><img id = ""stim"" ><div class = green_square id = topsquare></div>",null,encoding,word_square,,,1,topsquare,32,true,,,BANDIT,0,,,
html-keyboard-response,188,494564,100.60000002384186,"<div style=""font-size:42px;"">BANDIT</div>",32,,word,BANDIT,,,,,,,,,,,,
html-keyboard-response,189,496079,null,"",null,,word,BANDIT,,,,,,,,,,,,
html-keyboard-response,190,496281,null,"<div style=""font-size:42px;"">DUSTPAN</div><img id = ""stim"" ><div class = red_square id = bottomsquare></div>",null,encoding,word_square,,,0,bottomsquare,none,true,,,DUSTPAN,0,,,
html-keyboard-response,191,496592,null,"<div style=""font-size:42px;"">DUSTPAN</div>",null,,word,DUSTPAN,,,,,,,,,,,,
html-keyboard-response,192,498106,null,"",null,,word,DUSTPAN,,,,,,,,,,,,
html-keyboard-response,193,498309,null,"<div style=""font-size:42px;"">JACKET</div><img id = ""stim"" ><div class = red_square id = topsquare></div>",null,encoding,word_square,,,0,topsquare,none,true,,,JACKET,0,,,
html-keyboard-response,194,498621,null,"<div style=""font-size:42px;"">JACKET</div>",null,,word,JACKET,,,,,,,,,,,,
html-keyboard-response,195,500129,null,"",null,,word,JACKET,,,,,,,,,,,,
html-keyboard-response,196,500346,null,"<div style=""font-size:42px;"">YARN</div><img id = ""stim"" ><div class = green_square id = bottomsquare></div>",null,encoding,word_square,,,1,bottomsquare,32,true,,,YARN,0,,,
html-keyboard-response,197,500661,82.39999997615814,"<div style=""font-size:42px;"">YARN</div>",32,,word,YARN,,,,,,,,,,,,
html-keyboard-response,198,502165,null,"",null,,word,YARN,,,,,,,,,,,,
html-keyboard-response,199,502368,null,"<div style=""font-size:42px;"">DOCK</div><img id = ""stim"" ><div class = red_square id = bottomsquare></div>",null,encoding,word_square,,,0,bottomsquare,none,true,,,DOCK,0,,,
html-keyboard-response,200,502680,null,"<div style=""font-size:42px;"">DOCK</div>",null,,word,DOCK,,,,,,,,,,,,
html-keyboard-response,201,504189,null,"",null,,word,DOCK,,,,,,,,,,,,
html-keyboard-response,202,504392,null,"<div style=""font-size:42px;"">COLLEGE</div><img id = ""stim"" ><div class = red_square id = topsquare></div>",null,encoding,word_square,,,0,topsquare,none,true,,,COLLEGE,0,,,
html-keyboard-response,203,504704,null,"<div style=""font-size:42px;"">COLLEGE</div>",null,,word,COLLEGE,,,,,,,,,,,,
html-keyboard-response,204,506218,null,"",null,,word,COLLEGE,,,,,,,,,,,,
call-function,205,506219,,"",,,,,,,,,,,,,,,,
html-keyboard-response,206,506326,null,"",null,,,,,,,,,,,,,,,
math-period,207,508196,3489.7999999523163,"",,,,,,,,,,,4,,,,,
html-keyboard-response,208,508297,null,"",null,,,,,,,,,,,,,,,
math-period,209,510443,4063.4999998807907,"",,,,,,,,,,,1,,,,,
html-keyboard-response,210,510554,null,"",null,,,,,,,,,,,,,,,
math-period,211,512499,3708.899999976158,"",,,,,,,,,,,2,,,,,
html-keyboard-response,212,512600,null,"",null,,,,,,,,,,,,,,,
math-period,213,513568,1797.8000000715256,"",,,,,,,,,,,3,,,,,
html-keyboard-response,214,513684,null,"",null,,,,,,,,,,,,,,,
math-period,215,516406,5237.700000047684,"",,,,,,,,,,,3,,,,,
html-keyboard-response,216,516521,null,"",null,,,,,,,,,,,,,,,
math-period,217,517937,2599.100000023842,"",,,,,,,,,,,1,,,,,
html-keyboard-response,218,518049,null,"",null,,,,,,,,,,,,,,,
math-period,219,519452,2684.1999999284744,"",,,,,,,,,,,5,,,,,
html-keyboard-response,220,519565,null,"",null,,,,,,,,,,,,,,,
math-period,221,520617,1907.0000001192093,"",,,,,,,,,,,3,,,,,
html-keyboard-response,222,520719,null,"",null,,,,,,,,,,,,,,,
math-period,223,521856,2108.2999999523163,"",,,,,,,,,,,5,,,,,
html-keyboard-response,224,521958,null,"",null,,,,,,,,,,,,,,,
math-period,225,523001,1942.6999999284744,"",,,,,,,,,,,3,,,,,
html-keyboard-response,226,523109,null,"",null,,,,,,,,,,,,,,,
math-period,227,524204,2036.9000000953674,"",,,,,,,,,,,4,,,,,
html-keyboard-response,228,524312,null,"",null,,,,,,,,,,,,,,,
math-period,229,526094,3351.1999999284744,"",,,,,,,,,,,2,,,,,
html-keyboard-response,230,526202,null,"",null,,,,,,,,,,,,,,,
math-period,231,527500,2438.3000000715256,"",,,,,,,,,,,5,,,,,
html-keyboard-response,232,527606,null,"",null,,,,,,,,,,,,,,,
math-period,233,528995,2597.4999998807907,"",,,,,,,,,,,2,,,,,
html-keyboard-response,234,529098,null,"",null,,,,,,,,,,,,,,,
math-period,235,530222,null,"",,,,,,,,,,,,,,,,
html-keyboard-response,236,531232,null,"Recall Period!",null,,,,,,,,,,,,,,,
call-function,237,531232,,"",,,,,,,,,,,,,,,,
html-keyboard-response,238,531334,null,"",null,,,,,,,,,,,,,,,
recall-period,239,534274,22927.39999938011,"",,,,,,,,,,,braces,,,,,
html-keyboard-response,240,534378,null,"",null,,,,,,,,,,,,,,,
recall-period,241,536741,10768.799999833107,"",,,,,,,,,,,lapel,,,,,
html-keyboard-response,242,536843,null,"",null,,,,,,,,,,,,,,,
recall-period,243,539122,13900.199999690056,"",,,,,,,,,,,dustpan,,,,,
html-keyboard-response,244,539229,null,"",null,,,,,,,,,,,,,,,
recall-period,245,543233,17786.00000023842,"",,,,,,,,,,,puddle,,,,,
html-keyboard-response,246,543343,null,"",null,,,,,,,,,,,,,,,
recall-period,247,551142,57580.29999947548,"",,,,,,,,,,,brook,,,,,
html-keyboard-response,248,551244,null,"",null,,,,,,,,,,,,,,,
recall-period,249,584193,230122.5,"",,,,,,,,,,,dustbin,,,,,
html-keyboard-response,250,584296,null,"",null,,,,,,,,,,,,,,,
recall-period,251,597180,50509.10000002384,"",,,,,,,,,,,box,,,,,
html-keyboard-response,252,597282,null,"",null,,,,,,,,,,,,,,,
recall-period,253,606236,null,"",,,,,,,,,,,,,,,,
html-keyboard-response,254,606751,null,"Time's Up!",null,,,,,,,,,,,,,,,
html-keyboard-response,255,610117,3364.600000023842,"<p> Good job! You have responded correctly to 100% of the trials. </p>
                      <p>Be sure to only press the spacebar if you see a GREEN square, and please keep your accuracy above 80%.</p>
                      <p> Press any key to continue the experiment. </p>",32,,,,,,,,,,,,,,,
html-keyboard-response,256,611219,1101.1000000238419,"<div style=""font-size:48px;"">Press any key to begin list 2 of 16 </div>",32,,,,,,,,,,,,,,,
html-keyboard-response,257,613739,null,"<div style=""font-size:60px;"">+</div>",null,,,,,,,,,,,,,,,
html-keyboard-response,258,613942,null,"<div style=""font-size:42px;"">MARSH</div><img id = ""stim"" ><div class = red_square id = topsquare></div>",null,encoding,word_square,,,0,topsquare,none,true,,,MARSH,1,,,
html-keyboard-response,259,614254,null,"<div style=""font-size:42px;"">MARSH</div>",null,,word,MARSH,,,,,,,,,,,,
html-keyboard-response,260,615768,null,"",null,,word,MARSH,,,,,,,,,,,,
html-keyboard-response,261,615972,null,"<div style=""font-size:42px;"">PADDLE</div><img id = ""stim"" ><div class = red_square id = bottomsquare></div>",null,encoding,word_square,,,0,bottomsquare,none,true,,,PADDLE,1,,,
html-keyboard-response,262,616284,null,"<div style=""font-size:42px;"">PADDLE</div>",null,,word,PADDLE,,,,,,,,,,,,
html-keyboard-response,263,617797,null,"",null,,word,PADDLE,,,,,,,,,,,,
html-keyboard-response,264,617999,null,"<div style=""font-size:42px;"">PLAQUE</div><img id = ""stim"" ><div class = green_square id = bottomsquare></div>",null,encoding,word_square,,,1,bottomsquare,32,true,,,PLAQUE,1,,,
html-keyboard-response,265,618310,139,"<div style=""font-size:42px;"">PLAQUE</div>",32,,word,PLAQUE,,,,,,,,,,,,
html-keyboard-response,266,619823,null,"",null,,word,PLAQUE,,,,,,,,,,,,
html-keyboard-response,267,620025,null,"<div style=""font-size:42px;"">VAMPIRE</div><img id = ""stim"" ><div class = red_square id = topsquare></div>",null,encoding,word_square,,,0,topsquare,none,true,,,VAMPIRE,1,,,
html-keyboard-response,268,620336,null,"<div style=""font-size:42px;"">VAMPIRE</div>",null,,word,VAMPIRE,,,,,,,,,,,,
html-keyboard-response,269,621848,null,"",null,,word,VAMPIRE,,,,,,,,,,,,
html-keyboard-response,270,622050,null,"<div style=""font-size:42px;"">HAYSTACK</div><img id = ""stim"" ><div class = red_square id = bottomsquare></div>",null,encoding,word_square,,,0,bottomsquare,none,true,,,HAYSTACK,1,,,
html-keyboard-response,271,622361,null,"<div style=""font-size:42px;"">HAYSTACK</div>",null,,word,HAYSTACK,,,,,,,,,,,,
html-keyboard-response,272,623869,null,"",null,,word,HAYSTACK,,,,,,,,,,,,
html-keyboard-response,273,624085,null,"<div style=""font-size:42px;"">VICTIM</div><img id = ""stim"" ><div class = green_square id = topsquare></div>",null,encoding,word_square,,,1,topsquare,32,true,,,VICTIM,1,,,
html-keyboard-response,274,624398,67.10000002384186,"<div style=""font-size:42px;"">VICTIM</div>",32,,word,VICTIM,,,,,,,,,,,,
html-keyboard-response,275,625902,null,"",null,,word,VICTIM,,,,,,,,,,,,
html-keyboard-response,276,626116,null,"<div style=""font-size:42px;"">LODGE</div><img id = ""stim"" ><div class = red_square id = topsquare></div>",null,encoding,word_square,,,0,topsquare,none,true,,,LODGE,1,,,
html-keyboard-response,277,626426,null,"<div style=""font-size:42px;"">LODGE</div>",null,,word,LODGE,,,,,,,,,,,,
html-keyboard-response,278,627940,null,"",null,,word,LODGE,,,,,,,,,,,,
html-keyboard-response,279,628142,null,"<div style=""font-size:42px;"">LAKE</div><img id = ""stim"" ><div class = green_square id = bottomsquare></div>",null,encoding,word_square,,,1,bottomsquare,32,true,,,LAKE,1,,,
html-keyboard-response,280,628455,86.79999995231628,"<div style=""font-size:42px;"">LAKE</div>",32,,word,LAKE,,,,,,,,,,,,
html-keyboard-response,281,629967,null,"",null,,word,LAKE,,,,,,,,,,,,
html-keyboard-response,282,630171,null,"<div style=""font-size:42px;"">ANGEL</div><img id = ""stim"" ><div class = green_square id = topsquare></div>",null,encoding,word_square,,,1,topsquare,32,true,,,ANGEL,1,,,
html-keyboard-response,283,630483,56.60000002384186,"<div style=""font-size:42px;"">ANGEL</div>",32,,word,ANGEL,,,,,,,,,,,,
html-keyboard-response,284,631997,null,"",null,,word,ANGEL,,,,,,,,,,,,
html-keyboard-response,285,632201,null,"<div style=""font-size:42px;"">VIKING</div><img id = ""stim"" ><div class = red_square id = bottomsquare></div>",null,encoding,word_square,,,0,bottomsquare,none,true,,,VIKING,1,,,
html-keyboard-response,286,632513,null,"<div style=""font-size:42px;"">VIKING</div>",null,,word,VIKING,,,,,,,,,,,,
html-keyboard-response,287,634025,null,"",null,,word,VIKING,,,,,,,,,,,,
html-keyboard-response,288,634229,null,"<div style=""font-size:42px;"">CRACKER</div><img id = ""stim"" ><div class = green_square id = bottomsquare></div>",null,encoding,word_square,,,1,bottomsquare,32,true,,,CRACKER,1,,,
html-keyboard-response,289,634539,133.20000004768372,"<div style=""font-size:42px;"">CRACKER</div>",32,,word,CRACKER,,,,,,,,,,,,
html-keyboard-response,290,636051,null,"",null,,word,CRACKER,,,,,,,,,,,,
html-keyboard-response,291,636268,null,"<div style=""font-size:42px;"">HEDGE</div><img id = ""stim"" ><div class = green_square id = topsquare></div>",null,encoding,word_square,,,1,topsquare,32,true,,,HEDGE,1,,,
html-keyboard-response,292,636581,149.10000002384186,"<div style=""font-size:42px;"">HEDGE</div>",32,,word,HEDGE,,,,,,,,,,,,
html-keyboard-response,293,638097,null,"",null,,word,HEDGE,,,,,,,,,,,,
html-keyboard-response,294,638314,null,"<div style=""font-size:42px;"">SADDLE</div><img id = ""stim"" ><div class = red_square id = topsquare></div>",null,encoding,word_square,,,0,topsquare,none,true,,,SADDLE,1,,,
html-keyboard-response,295,638625,null,"<div style=""font-size:42px;"">SADDLE</div>",null,,word,SADDLE,,,,,,,,,,,,
html-keyboard-response,296,640136,null,"",null,,word,SADDLE,,,,,,,,,,,,
html-keyboard-response,297,640341,null,"<div style=""font-size:42px;"">WAGON</div><img id = ""stim"" ><div class = red_square id = bottomsquare></div>",null,encoding,word_square,,,0,bottomsquare,none,true,,,WAGON,1,,,
html-keyboard-response,298,640654,null,"<div style=""font-size:42px;"">WAGON</div>",null,,word,WAGON,,,,,,,,,,,,
html-keyboard-response,299,642168,null,"",null,,word,WAGON,,,,,,,,,,,,
html-keyboard-response,300,642371,null,"<div style=""font-size:42px;"">HAND</div><img id = ""stim"" ><div class = green_square id = bottomsquare></div>",null,encoding,word_square,,,1,bottomsquare,32,true,,,HAND,1,,,
html-keyboard-response,301,642684,76,"<div style=""font-size:42px;"">HAND</div>",32,,word,HAND,,,,,,,,,,,,
html-keyboard-response,302,644199,null,"",null,,word,HAND,,,,,,,,,,,,
html-keyboard-response,303,644402,null,"<div style=""font-size:42px;"">DANDRUFF</div><img id = ""stim"" ><div class = green_square id = topsquare></div>",null,encoding,word_square,,,1,topsquare,32,true,,,DANDRUFF,1,,,
html-keyboard-response,304,644713,98.39999997615814,"<div style=""font-size:42px;"">DANDRUFF</div>",32,,word,DANDRUFF,,,,,,,,,,,,
html-keyboard-response,305,646230,null,"",null,,word,DANDRUFF,,,,,,,,,,,,
call-function,306,646230,,"",,,,,,,,,,,,,,,,
html-keyboard-response,307,646332,null,"",null,,,,,,,,,,,,,,,
math-period,308,647935,3098.0999999046326,"",,,,,,,,,,,4,,,,,
html-keyboard-response,309,648038,null,"",null,,,,,,,,,,,,,,,
math-period,310,649799,3393.7000000476837,"",,,,,,,,,,,4,,,,,
html-keyboard-response,311,649911,null,"",null,,,,,,,,,,,,,,,
math-period,312,651576,3103,"",,,,,,,,,,,4,,,,,
html-keyboard-response,313,651687,null,"",null,,,,,,,,,,,,,,,
math-period,314,652863,2188.9999998807907,"",,,,,,,,,,,3,,,,,
html-keyboard-response,315,652968,null,"",null,,,,,,,,,,,,,,,
math-period,316,655528,4312.399999976158,"",,,,,,,,,,,3,,,,,
html-keyboard-response,317,655636,null,"",null,,,,,,,,,,,,,,,
math-period,318,657038,2629.7000000476837,"",,,,,,,,,,,2,,,,,
html-keyboard-response,319,657147,null,"",null,,,,,,,,,,,,,,,
math-period,320,658516,2573.7000000476837,"",,,,,,,,,,,2,,,,,
html-keyboard-response,321,658628,null,"",null,,,,,,,,,,,,,,,
math-period,322,661205,4098.599999904633,"",,,,,,,,,,,3,,,,,
html-keyboard-response,323,661308,null,"",null,,,,,,,,,,,,,,,
math-period,324,662149,1549.9000000953674,"",,,,,,,,,,,2,,,,,
html-keyboard-response,325,662251,null,"",null,,,,,,,,,,,,,,,
math-period,326,663260,1890.9000000953674,"",,,,,,,,,,,3,,,,,
html-keyboard-response,327,663372,null,"",null,,,,,,,,,,,,,,,
math-period,328,664389,1891.3999999761581,"",,,,,,,,,,,4,,,,,
html-keyboard-response,329,664495,null,"",null,,,,,,,,,,,,,,,
math-period,330,665963,2688.0999999046326,"",,,,,,,,,,,6,,,,,
html-keyboard-response,331,666075,null,"",null,,,,,,,,,,,,,,,
math-period,332,667469,2597.5999999046326,"",,,,,,,,,,,5,,,,,
html-keyboard-response,333,667572,null,"",null,,,,,,,,,,,,,,,
math-period,334,669525,3674.399999976158,"",,,,,,,,,,,1,,,,,
html-keyboard-response,335,669631,null,"",null,,,,,,,,,,,,,,,
math-period,336,670240,null,"",,,,,,,,,,,,,,,,
html-keyboard-response,337,671256,null,"Recall Period!",null,,,,,,,,,,,,,,,
call-function,338,671257,,"",,,,,,,,,,,,,,,,
html-keyboard-response,339,671359,null,"",null,,,,,,,,,,,,,,,
recall-period,340,672862,8698.100000023842,"",,,,,,,,,,,vampire,,,,,
html-keyboard-response,341,672974,null,"",null,,,,,,,,,,,,,,,
recall-period,342,674257,4902.100000023842,"",,,,,,,,,,,victim,,,,,
html-keyboard-response,343,674362,null,"",null,,,,,,,,,,,,,,,
recall-period,344,675038,2000.8000001907349,"",,,,,,,,,,,lake,,,,,
html-keyboard-response,345,675145,null,"",null,,,,,,,,,,,,,,,
recall-period,346,676782,8682.300000548363,"",,,,,,,,,,,lodge,,,,,
html-keyboard-response,347,676894,null,"",null,,,,,,,,,,,,,,,
recall-period,348,678303,5658.099999785423,"",,,,,,,,,,,hand,,,,,
html-keyboard-response,349,678406,null,"",null,,,,,,,,,,,,,,,
recall-period,350,721798,299528.7999997139,"",,,,,,,,,,,viking,,,,,
html-keyboard-response,351,721899,null,"",null,,,,,,,,,,,,,,,
recall-period,352,746258,null,"",,,,,,,,,,,,,,,,
html-keyboard-response,353,746773,null,"Time's Up!",null,,,,,,,,,,,,,,,
html-keyboard-response,354,749527,2753.100000023842,"<p> Good job! You have responded correctly to 100% of the trials. </p>
                      <p>Be sure to only press the spacebar if you see a GREEN square, and please keep your accuracy above 80%.</p>
                      <p> Press any key to continue the experiment. </p>",32,,,,,,,,,,,,,,,
html-keyboard-response,355,750234,705.5,"<div style=""font-size:48px;"">Press any key to begin list 3 of 16 </div>",32,,,,,,,,,,,,,,,
html-keyboard-response,356,752747,null,"<div style=""font-size:60px;"">+</div>",null,,,,,,,,,,,,,,,
html-keyboard-response,357,752964,null,"<div style=""font-size:42px;"">CHECKERS</div><img id = ""stim"" ><div class = red_square id = bottomsquare></div>",null,encoding,word_square,,,0,bottomsquare,none,true,,,CHECKERS,2,,,
html-keyboard-response,358,753279,null,"<div style=""font-size:42px;"">CHECKERS</div>",null,,word,CHECKERS,,,,,,,,,,,,
html-keyboard-response,359,754792,null,"",null,,word,CHECKERS,,,,,,,,,,,,
html-keyboard-response,360,754996,null,"<div style=""font-size:42px;"">GLASSES</div><img id = ""stim"" ><div class = red_square id = topsquare></div>",null,encoding,word_square,,,0,topsquare,none,true,,,GLASSES,2,,,
html-keyboard-response,361,755312,null,"<div style=""font-size:42px;"">GLASSES</div>",null,,word,GLASSES,,,,,,,,,,,,
html-keyboard-response,362,756818,null,"",null,,word,GLASSES,,,,,,,,,,,,
html-keyboard-response,363,757021,null,"<div style=""font-size:42px;"">SOCKET</div><img id = ""stim"" ><div class = green_square id = topsquare></div>",null,encoding,word_square,,,1,topsquare,32,true,,,SOCKET,2,,,
html-keyboard-response,364,757336,113.5,"<div style=""font-size:42px;"">SOCKET</div>",32,,word,SOCKET,,,,,,,,,,,,
html-keyboard-response,365,758847,null,"",null,,word,SOCKET,,,,,,,,,,,,
html-keyboard-response,366,759049,null,"<div style=""font-size:42px;"">BUTLER</div><img id = ""stim"" ><div class = green_square id = bottomsquare></div>",null,encoding,word_square,,,1,bottomsquare,32,true,,,BUTLER,2,,,
html-keyboard-response,367,759360,77.79999995231628,"<div style=""font-size:42px;"">BUTLER</div>",32,,word,BUTLER,,,,,,,,,,,,
html-keyboard-response,368,760871,null,"",null,,word,BUTLER,,,,,,,,,,,,
html-keyboard-response,369,761088,null,"<div style=""font-size:42px;"">DRAWING</div><img id = ""stim"" ><div class = red_square id = bottomsquare></div>",null,encoding,word_square,,,0,bottomsquare,none,true,,,DRAWING,2,,,
html-keyboard-response,370,761401,null,"<div style=""font-size:42px;"">DRAWING</div>",null,,word,DRAWING,,,,,,,,,,,,
html-keyboard-response,371,762907,null,"",null,,word,DRAWING,,,,,,,,,,,,
html-keyboard-response,372,763111,null,"<div style=""font-size:42px;"">CANOE</div><img id = ""stim"" ><div class = red_square id = topsquare></div>",null,encoding,word_square,,,0,topsquare,none,true,,,CANOE,2,,,
html-keyboard-response,373,763420,null,"<div style=""font-size:42px;"">CANOE</div>",null,,word,CANOE,,,,,,,,,,,,
html-keyboard-response,374,764934,null,"",null,,word,CANOE,,,,,,,,,,,,
html-keyboard-response,375,765139,null,"<div style=""font-size:42px;"">SCULPTURE</div><img id = ""stim"" ><div class = green_square id = topsquare></div>",null,encoding,word_square,,,1,topsquare,32,true,,,SCULPTURE,2,,,
html-keyboard-response,376,765451,111.80000007152557,"<div style=""font-size:42px;"">SCULPTURE</div>",32,,word,SCULPTURE,,,,,,,,,,,,
html-keyboard-response,377,766967,null,"",null,,word,SCULPTURE,,,,,,,,,,,,
html-keyboard-response,378,767169,null,"<div style=""font-size:42px;"">SKETCH</div><img id = ""stim"" ><div class = red_square id = bottomsquare></div>",null,encoding,word_square,,,0,bottomsquare,none,true,,,SKETCH,2,,,
html-keyboard-response,379,767482,null,"<div style=""font-size:42px;"">SKETCH</div>",null,,word,SKETCH,,,,,,,,,,,,
html-keyboard-response,380,768994,null,"",null,,word,SKETCH,,,,,,,,,,,,
html-keyboard-response,381,769196,null,"<div style=""font-size:42px;"">SHOVEL</div><img id = ""stim"" ><div class = red_square id = topsquare></div>",null,encoding,word_square,,,0,topsquare,none,true,,,SHOVEL,2,,,
html-keyboard-response,382,769510,null,"<div style=""font-size:42px;"">SHOVEL</div>",null,,word,SHOVEL,,,,,,,,,,,,
html-keyboard-response,383,771024,null,"",null,,word,SHOVEL,,,,,,,,,,,,
html-keyboard-response,384,771227,null,"<div style=""font-size:42px;"">CASHIER</div><img id = ""stim"" ><div class = green_square id = bottomsquare></div>",null,encoding,word_square,,,1,bottomsquare,32,true,,,CASHIER,2,,,
html-keyboard-response,385,771539,17.100000023841858,"<div style=""font-size:42px;"">CASHIER</div>",32,,word,CASHIER,,,,,,,,,,,,
html-keyboard-response,386,773054,null,"",null,,word,CASHIER,,,,,,,,,,,,
html-keyboard-response,387,773272,null,"<div style=""font-size:42px;"">PARENT</div><img id = ""stim"" ><div class = red_square id = bottomsquare></div>",null,encoding,word_square,,,0,bottomsquare,none,true,,,PARENT,2,,,
html-keyboard-response,388,773585,null,"<div style=""font-size:42px;"">PARENT</div>",null,,word,PARENT,,,,,,,,,,,,
html-keyboard-response,389,775093,null,"",null,,word,PARENT,,,,,,,,,,,,
html-keyboard-response,390,775312,null,"<div style=""font-size:42px;"">CUSTARD</div><img id = ""stim"" ><div class = green_square id = topsquare></div>",null,encoding,word_square,,,1,topsquare,32,true,,,CUSTARD,2,,,
html-keyboard-response,391,775623,63.89999997615814,"<div style=""font-size:42px;"">CUSTARD</div>",32,,word,CUSTARD,,,,,,,,,,,,
html-keyboard-response,392,777136,null,"",null,,word,CUSTARD,,,,,,,,,,,,
html-keyboard-response,393,777338,null,"<div style=""font-size:42px;"">GIRL</div><img id = ""stim"" ><div class = green_square id = bottomsquare></div>",null,encoding,word_square,,,1,bottomsquare,32,true,,,GIRL,2,,,
html-keyboard-response,394,777643,121.39999997615814,"<div style=""font-size:42px;"">GIRL</div>",32,,word,GIRL,,,,,,,,,,,,
html-keyboard-response,395,779151,null,"",null,,word,GIRL,,,,,,,,,,,,
html-keyboard-response,396,779353,null,"<div style=""font-size:42px;"">DAUGHTER</div><img id = ""stim"" ><div class = red_square id = topsquare></div>",null,encoding,word_square,,,0,topsquare,none,true,,,DAUGHTER,2,,,
html-keyboard-response,397,779663,null,"<div style=""font-size:42px;"">DAUGHTER</div>",null,,word,DAUGHTER,,,,,,,,,,,,
html-keyboard-response,398,781173,null,"",null,,word,DAUGHTER,,,,,,,,,,,,
html-keyboard-response,399,781375,null,"<div style=""font-size:42px;"">SUPPER</div><img id = ""stim"" ><div class = green_square id = topsquare></div>",null,encoding,word_square,,,1,topsquare,32,true,,,SUPPER,2,,,
html-keyboard-response,400,781686,115.39999997615814,"<div style=""font-size:42px;"">SUPPER</div>",32,,word,SUPPER,,,,,,,,,,,,
html-keyboard-response,401,783200,null,"",null,,word,SUPPER,,,,,,,,,,,,
html-keyboard-response,402,783403,null,"<div style=""font-size:42px;"">BALLOON</div><img id = ""stim"" ><div class = green_square id = bottomsquare></div>",null,encoding,word_square,,,1,bottomsquare,32,true,,,BALLOON,2,,,
html-keyboard-response,403,783716,89.29999995231628,"<div style=""font-size:42px;"">BALLOON</div>",32,,word,BALLOON,,,,,,,,,,,,
html-keyboard-response,404,785226,null,"",null,,word,BALLOON,,,,,,,,,,,,
call-function,405,785226,,"",,,,,,,,,,,,,,,,
html-keyboard-response,406,785328,null,"",null,,,,,,,,,,,,,,,
math-period,407,786623,2455.0000001192093,"",,,,,,,,,,,3,,,,,
html-keyboard-response,408,786725,null,"",null,,,,,,,,,,,,,,,
math-period,409,787812,2041.8000000715256,"",,,,,,,,,,,4,,,,,
html-keyboard-response,410,787925,null,"",null,,,,,,,,,,,,,,,
math-period,411,789241,2493.0000001192093,"",,,,,,,,,,,4,,,,,
html-keyboard-response,412,789348,null,"",null,,,,,,,,,,,,,,,
math-period,413,790595,2302.9999998807907,"",,,,,,,,,,,4,,,,,
html-keyboard-response,414,790703,null,"",null,,,,,,,,,,,,,,,
math-period,415,792107,2565.600000023842,"",,,,,,,,,,,6,,,,,
html-keyboard-response,416,792212,null,"",null,,,,,,,,,,,,,,,
math-period,417,793417,2238.0000001192093,"",,,,,,,,,,,4,,,,,
html-keyboard-response,418,793521,null,"",null,,,,,,,,,,,,,,,
math-period,419,794440,1668.6999999284744,"",,,,,,,,,,,2,,,,,
html-keyboard-response,420,794556,null,"",null,,,,,,,,,,,,,,,
math-period,421,799550,18079.50000023842,"",,,,,,,,,,,0,,,,,
html-keyboard-response,422,799656,null,"",null,,,,,,,,,,,,,,,
math-period,423,800778,2091.5000001192093,"",,,,,,,,,,,5,,,,,
html-keyboard-response,424,800889,null,"",null,,,,,,,,,,,,,,,
math-period,425,802526,3099.899999856949,"",,,,,,,,,,,3,,,,,
html-keyboard-response,426,802634,null,"",null,,,,,,,,,,,,,,,
math-period,427,803666,1917.5999999046326,"",,,,,,,,,,,4,,,,,
html-keyboard-response,428,803775,null,"",null,,,,,,,,,,,,,,,
math-period,429,805211,2634.899999856949,"",,,,,,,,,,,4,,,,,
html-keyboard-response,430,805322,null,"",null,,,,,,,,,,,,,,,
math-period,431,807257,3742.9000000953674,"",,,,,,,,,,,5,,,,,
html-keyboard-response,432,807365,null,"",null,,,,,,,,,,,,,,,
math-period,433,808327,1797.1000001430511,"",,,,,,,,,,,4,,,,,
html-keyboard-response,434,808443,null,"",null,,,,,,,,,,,,,,,
math-period,435,809237,null,"",,,,,,,,,,,,,,,,
html-keyboard-response,436,810247,null,"Recall Period!",null,,,,,,,,,,,,,,,
call-function,437,810247,,"",,,,,,,,,,,,,,,,
html-keyboard-response,438,810356,null,"",null,,,,,,,,,,,,,,,
recall-period,439,811621,3536.400000333786,"",,,,,,,,,,,girl,,,,,
html-keyboard-response,440,811724,null,"",null,,,,,,,,,,,,,,,
recall-period,441,814347,7423.699999928474,"",,,,,,,,,,,cashier,,,,,
html-keyboard-response,442,814450,null,"",null,,,,,,,,,,,,,,,
recall-period,443,818507,21958.50000023842,"",,,,,,,,,,,butler,,,,,
html-keyboard-response,444,818612,null,"",null,,,,,,,,,,,,,,,
recall-period,445,824343,47675.60000014305,"",,,,,,,,,,,sculpture,,,,,
html-keyboard-response,446,824454,null,"",null,,,,,,,,,,,,,,,
recall-period,447,825966,6908.099999904633,"",,,,,,,,,,,custard,,,,,
html-keyboard-response,448,826067,null,"",null,,,,,,,,,,,,,,,
recall-period,449,833159,58263.79999959469,"",,,,,,,,,,,daughter,,,,,
html-keyboard-response,450,833261,null,"",null,,,,,,,,,,,,,,,
recall-period,451,842145,50773.699999928474,"",,,,,,,,,,,canoe,,,,,
html-keyboard-response,452,842248,null,"",null,,,,,,,,,,,,,,,
recall-period,453,885251,null,"",,,,,,,,,,,,,,,,
html-keyboard-response,454,885767,null,"Time's Up!",null,,,,,,,,,,,,,,,
html-keyboard-response,455,889014,3245.100000023842,"<p> Good job! You have responded correctly to 100% of the trials. </p>
                      <p>Be sure to only press the spacebar if you see a GREEN square, and please keep your accuracy above 80%.</p>
                      <p> Press any key to continue the experiment. </p>",32,,,,,,,,,,,,,,,
html-keyboard-response,456,889525,510.60000002384186,"<div style=""font-size:48px;"">Press any key to begin list 4 of 16 </div>",32,,,,,,,,,,,,,,,
html-keyboard-response,457,892047,null,"<div style=""font-size:60px;"">+</div>",null,,,,,,,,,,,,,,,
html-keyboard-response,458,892251,null,"<div style=""font-size:42px;"">CROOK</div><img id = ""stim"" ><div class = green_square id = bottomsquare></div>",null,encoding,word_square,,,1,bottomsquare,32,true,,,CROOK,3,,,
html-keyboard-response,459,892562,144.90000009536743,"<div style=""font-size:42px;"">CROOK</div>",32,,word,CROOK,,,,,,,,,,,,
html-keyboard-response,460,894076,null,"",null,,word,CROOK,,,,,,,,,,,,
html-keyboard-response,461,894293,null,"<div style=""font-size:42px;"">CURTAIN</div><img id = ""stim"" ><div class = green_square id = topsquare></div>",null,encoding,word_square,,,1,topsquare,32,true,,,CURTAIN,3,,,
html-keyboard-response,462,894605,103.19999992847443,"<div style=""font-size:42px;"">CURTAIN</div>",32,,word,CURTAIN,,,,,,,,,,,,
html-keyboard-response,463,896116,null,"",null,,word,CURTAIN,,,,,,,,,,,,
html-keyboard-response,464,896319,null,"<div style=""font-size:42px;"">SERPENT</div><img id = ""stim"" ><div class = red_square id = topsquare></div>",null,encoding,word_square,,,0,topsquare,none,true,,,SERPENT,3,,,
html-keyboard-response,465,896631,null,"<div style=""font-size:42px;"">SERPENT</div>",null,,word,SERPENT,,,,,,,,,,,,
html-keyboard-response,466,898145,null,"",null,,word,SERPENT,,,,,,,,,,,,
html-keyboard-response,467,898362,null,"<div style=""font-size:42px;"">CANAL</div><img id = ""stim"" ><div class = green_square id = bottomsquare></div>",null,encoding,word_square,,,1,bottomsquare,32,true,,,CANAL,3,,,
html-keyboard-response,468,898672,152.59999990463257,"<div style=""font-size:42px;"">CANAL</div>",32,,word,CANAL,,,,,,,,,,,,
html-keyboard-response,469,900185,null,"",null,,word,CANAL,,,,,,,,,,,,
html-keyboard-response,470,900388,null,"<div style=""font-size:42px;"">MAPLE</div><img id = ""stim"" ><div class = green_square id = topsquare></div>",null,encoding,word_square,,,1,topsquare,32,true,,,MAPLE,3,,,
html-keyboard-response,471,900699,187.10000002384186,"<div style=""font-size:42px;"">MAPLE</div>",32,,word,MAPLE,,,,,,,,,,,,
html-keyboard-response,472,902214,null,"",null,,word,MAPLE,,,,,,,,,,,,
html-keyboard-response,473,902417,null,"<div style=""font-size:42px;"">TWIG</div><img id = ""stim"" ><div class = red_square id = bottomsquare></div>",null,encoding,word_square,,,0,bottomsquare,none,true,,,TWIG,3,,,
html-keyboard-response,474,902729,null,"<div style=""font-size:42px;"">TWIG</div>",null,,word,TWIG,,,,,,,,,,,,
html-keyboard-response,475,904238,null,"",null,,word,TWIG,,,,,,,,,,,,
html-keyboard-response,476,904440,null,"<div style=""font-size:42px;"">LEMON</div><img id = ""stim"" ><div class = green_square id = bottomsquare></div>",null,encoding,word_square,,,1,bottomsquare,32,true,,,LEMON,3,,,
html-keyboard-response,477,904750,114.60000002384186,"<div style=""font-size:42px;"">LEMON</div>",32,,word,LEMON,,,,,,,,,,,,
html-keyboard-response,478,906256,null,"",null,,word,LEMON,,,,,,,,,,,,
html-keyboard-response,479,906459,null,"<div style=""font-size:42px;"">GYMNAST</div><img id = ""stim"" ><div class = red_square id = topsquare></div>",null,encoding,word_square,,,0,topsquare,none,true,,,GYMNAST,3,,,
html-keyboard-response,480,906772,null,"<div style=""font-size:42px;"">GYMNAST</div>",null,,word,GYMNAST,,,,,,,,,,,,
html-keyboard-response,481,908283,null,"",null,,word,GYMNAST,,,,,,,,,,,,
html-keyboard-response,482,908488,null,"<div style=""font-size:42px;"">PASSAGE</div><img id = ""stim"" ><div class = red_square id = bottomsquare></div>",null,encoding,word_square,,,0,bottomsquare,none,true,,,PASSAGE,3,,,
html-keyboard-response,483,908798,null,"<div style=""font-size:42px;"">PASSAGE</div>",null,,word,PASSAGE,,,,,,,,,,,,
html-keyboard-response,484,910309,null,"",null,,word,PASSAGE,,,,,,,,,,,,
html-keyboard-response,485,910512,null,"<div style=""font-size:42px;"">COOK</div><img id = ""stim"" ><div class = green_square id = topsquare></div>",null,encoding,word_square,,,1,topsquare,32,true,,,COOK,3,,,
html-keyboard-response,486,910825,100.30000007152557,"<div style=""font-size:42px;"">COOK</div>",32,,word,COOK,,,,,,,,,,,,
html-keyboard-response,487,912338,null,"",null,,word,COOK,,,,,,,,,,,,
html-keyboard-response,488,912542,null,"<div style=""font-size:42px;"">SNACK</div><img id = ""stim"" ><div class = red_square id = topsquare></div>",null,encoding,word_square,,,0,topsquare,none,true,,,SNACK,3,,,
html-keyboard-response,489,912853,null,"<div style=""font-size:42px;"">SNACK</div>",null,,word,SNACK,,,,,,,,,,,,
html-keyboard-response,490,914366,null,"",null,,word,SNACK,,,,,,,,,,,,
html-keyboard-response,491,914569,null,"<div style=""font-size:42px;"">OATMEAL</div><img id = ""stim"" ><div class = red_square id = bottomsquare></div>",null,encoding,word_square,,,0,bottomsquare,none,true,,,OATMEAL,3,,,
html-keyboard-response,492,914881,null,"<div style=""font-size:42px;"">OATMEAL</div>",null,,word,OATMEAL,,,,,,,,,,,,
html-keyboard-response,493,916392,null,"",null,,word,OATMEAL,,,,,,,,,,,,
html-keyboard-response,494,916596,null,"<div style=""font-size:42px;"">HEART</div><img id = ""stim"" ><div class = green_square id = bottomsquare></div>",null,encoding,word_square,,,1,bottomsquare,32,true,,,HEART,3,,,
html-keyboard-response,495,916910,124.19999992847443,"<div style=""font-size:42px;"">HEART</div>",32,,word,HEART,,,,,,,,,,,,
html-keyboard-response,496,918423,null,"",null,,word,HEART,,,,,,,,,,,,
html-keyboard-response,497,918626,null,"<div style=""font-size:42px;"">SHRUB</div><img id = ""stim"" ><div class = green_square id = topsquare></div>",null,encoding,word_square,,,1,topsquare,32,true,,,SHRUB,3,,,
html-keyboard-response,498,918936,108.80000007152557,"<div style=""font-size:42px;"">SHRUB</div>",32,,word,SHRUB,,,,,,,,,,,,
html-keyboard-response,499,920439,null,"",null,,word,SHRUB,,,,,,,,,,,,
html-keyboard-response,500,920642,null,"<div style=""font-size:42px;"">KEEPER</div><img id = ""stim"" ><div class = red_square id = topsquare></div>",null,encoding,word_square,,,0,topsquare,none,true,,,KEEPER,3,,,
html-keyboard-response,501,920952,null,"<div style=""font-size:42px;"">KEEPER</div>",null,,word,KEEPER,,,,,,,,,,,,
html-keyboard-response,502,922466,null,"",null,,word,KEEPER,,,,,,,,,,,,
html-keyboard-response,503,922668,null,"<div style=""font-size:42px;"">WAITRESS</div><img id = ""stim"" ><div class = red_square id = bottomsquare></div>",null,encoding,word_square,,,0,bottomsquare,none,true,,,WAITRESS,3,,,
html-keyboard-response,504,922980,null,"<div style=""font-size:42px;"">WAITRESS</div>",null,,word,WAITRESS,,,,,,,,,,,,
html-keyboard-response,505,924493,null,"",null,,word,WAITRESS,,,,,,,,,,,,
call-function,506,924493,,"",,,,,,,,,,,,,,,,
html-keyboard-response,507,924594,null,"",null,,,,,,,,,,,,,,,
math-period,508,926461,3537.5,"",,,,,,,,,,,2,,,,,
html-keyboard-response,509,926571,null,"",null,,,,,,,,,,,,,,,
math-period,510,927926,2429.600000023842,"",,,,,,,,,,,4,,,,,
html-keyboard-response,511,928036,null,"",null,,,,,,,,,,,,,,,
math-period,512,929604,2976.1999999284744,"",,,,,,,,,,,1,,,,,
html-keyboard-response,513,929705,null,"",null,,,,,,,,,,,,,,,
math-period,514,931654,3670.4999998807907,"",,,,,,,,,,,2,,,,,
html-keyboard-response,515,931763,null,"",null,,,,,,,,,,,,,,,
math-period,516,933685,3664.1999999284744,"",,,,,,,,,,,2,,,,,
html-keyboard-response,517,933789,null,"",null,,,,,,,,,,,,,,,
math-period,518,935429,3098.3000000715256,"",,,,,,,,,,,2,,,,,
html-keyboard-response,519,935544,null,"",null,,,,,,,,,,,,,,,
math-period,520,937610,3948.4999998807907,"",,,,,,,,,,,3,,,,,
html-keyboard-response,521,937721,null,"",null,,,,,,,,,,,,,,,
math-period,522,939343,3067.299999833107,"",,,,,,,,,,,2,,,,,
html-keyboard-response,523,939452,null,"",null,,,,,,,,,,,,,,,
math-period,524,940841,2537.200000166893,"",,,,,,,,,,,4,,,,,
html-keyboard-response,525,940945,null,"",null,,,,,,,,,,,,,,,
math-period,526,943973,5830.300000071526,"",,,,,,,,,,,3,,,,,
html-keyboard-response,527,944075,null,"",null,,,,,,,,,,,,,,,
math-period,528,945185,2052.3000000715256,"",,,,,,,,,,,4,,,,,
html-keyboard-response,529,945290,null,"",null,,,,,,,,,,,,,,,
math-period,530,946535,2275.6999999284744,"",,,,,,,,,,,4,,,,,
html-keyboard-response,531,946637,null,"",null,,,,,,,,,,,,,,,
math-period,532,948121,2775,"",,,,,,,,,,,1,,,,,
html-keyboard-response,533,948237,null,"",null,,,,,,,,,,,,,,,
math-period,534,948502,null,"",,,,,,,,,,,,,,,,
html-keyboard-response,535,949515,null,"Recall Period!",null,,,,,,,,,,,,,,,
call-function,536,949516,,"",,,,,,,,,,,,,,,,
html-keyboard-response,537,949617,null,"",null,,,,,,,,,,,,,,,
recall-period,538,950869,4603.299999952316,"",,,,,,,,,,,crook,,,,,
html-keyboard-response,539,950980,null,"",null,,,,,,,,,,,,,,,
recall-period,540,952171,4373.800000190735,"",,,,,,,,,,,cook,,,,,
html-keyboard-response,541,952273,null,"",null,,,,,,,,,,,,,,,
recall-period,542,953108,3127.3999996185303,"",,,,,,,,,,,lemon,,,,,
html-keyboard-response,543,953224,null,"",null,,,,,,,,,,,,,,,
recall-period,544,954194,4019.3999996185303,"",,,,,,,,,,,curtain,,,,,
html-keyboard-response,545,954301,null,"",null,,,,,,,,,,,,,,,
recall-period,546,955145,2843.6000003814697,"",,,,,,,,,,,canal,,,,,
html-keyboard-response,547,955252,null,"",null,,,,,,,,,,,,,,,
recall-period,548,956219,3448.599999666214,"",,,,,,,,,,,maple,,,,,
html-keyboard-response,549,956331,null,"",null,,,,,,,,,,,,,,,
recall-period,550,964754,62176.59999978542,"",,,,,,,,,,,oatmeal,,,,,
html-keyboard-response,551,964864,null,"",null,,,,,,,,,,,,,,,
recall-period,552,967928,18326.200000166893,"",,,,,,,,,,,supper,,,,,
html-keyboard-response,553,968040,null,"",null,,,,,,,,,,,,,,,
recall-period,554,976592,21150.10000038147,"",,,,,,,,,,,butler,,,,,
html-keyboard-response,555,976707,null,"",null,,,,,,,,,,,,,,,
recall-period,556,988978,70582.89999973774,"",,,,,,,,,,,lemon,,,,,
html-keyboard-response,557,989086,null,"",null,,,,,,,,,,,,,,,
recall-period,558,993533,28617.70000052452,"",,,,,,,,,,,passage,,,,,
html-keyboard-response,559,993638,null,"",null,,,,,,,,,,,,,,,
recall-period,560,1024532,null,"",,,,,,,,,,,,,,,,
html-keyboard-response,561,1025045,null,"Time's Up!",null,,,,,,,,,,,,,,,
html-keyboard-response,562,1027835,2789.2000000476837,"<p> Good job! You have responded correctly to 100% of the trials. </p>
                      <p>Be sure to only press the spacebar if you see a GREEN square, and please keep your accuracy above 80%.</p>
                      <p> Press any key to continue the experiment. </p>",32,,,,,,,,,,,,,,,
html-keyboard-response,563,1031505,3668.7999999523163,"<div style=""font-size:48px;"">Press any key to begin list 5 of 16 </div>",32,,,,,,,,,,,,,,,
html-keyboard-response,564,1034018,null,"<div style=""font-size:60px;"">+</div>",null,,,,,,,,,,,,,,,
html-keyboard-response,565,1034236,null,"<div style=""font-size:42px;"">TART</div><img id = ""stim"" ><div class = green_square id = topsquare></div>",null,encoding,word_square,,,1,topsquare,32,true,,,TART,4,,,
html-keyboard-response,566,1034548,169.80000007152557,"<div style=""font-size:42px;"">TART</div>",32,,word,TART,,,,,,,,,,,,
html-keyboard-response,567,1036062,null,"",null,,word,TART,,,,,,,,,,,,
html-keyboard-response,568,1036278,null,"<div style=""font-size:42px;"">CLERK</div><img id = ""stim"" ><div class = red_square id = bottomsquare></div>",null,encoding,word_square,,,0,bottomsquare,none,true,,,CLERK,4,,,
html-keyboard-response,569,1036591,null,"<div style=""font-size:42px;"">CLERK</div>",null,,word,CLERK,,,,,,,,,,,,
html-keyboard-response,570,1038106,null,"",null,,word,CLERK,,,,,,,,,,,,
html-keyboard-response,571,1038322,null,"<div style=""font-size:42px;"">FIREMAN</div><img id = ""stim"" ><div class = red_square id = topsquare></div>",null,encoding,word_square,,,0,topsquare,none,true,,,FIREMAN,4,,,
html-keyboard-response,572,1038635,null,"<div style=""font-size:42px;"">FIREMAN</div>",null,,word,FIREMAN,,,,,,,,,,,,
html-keyboard-response,573,1040145,null,"",null,,word,FIREMAN,,,,,,,,,,,,
html-keyboard-response,574,1040363,null,"<div style=""font-size:42px;"">BLENDER</div><img id = ""stim"" ><div class = green_square id = bottomsquare></div>",null,encoding,word_square,,,1,bottomsquare,32,true,,,BLENDER,4,,,
html-keyboard-response,575,1040675,63.39999997615814,"<div style=""font-size:42px;"">BLENDER</div>",32,,word,BLENDER,,,,,,,,,,,,
html-keyboard-response,576,1042187,null,"",null,,word,BLENDER,,,,,,,,,,,,
html-keyboard-response,577,1042389,null,"<div style=""font-size:42px;"">PISTON</div><img id = ""stim"" ><div class = red_square id = bottomsquare></div>",null,encoding,word_square,,,0,bottomsquare,none,true,,,PISTON,4,,,
html-keyboard-response,578,1042701,null,"<div style=""font-size:42px;"">PISTON</div>",null,,word,PISTON,,,,,,,,,,,,
html-keyboard-response,579,1044211,null,"",null,,word,PISTON,,,,,,,,,,,,
html-keyboard-response,580,1044413,null,"<div style=""font-size:42px;"">PRIEST</div><img id = ""stim"" ><div class = green_square id = topsquare></div>",null,encoding,word_square,,,1,topsquare,32,true,,,PRIEST,4,,,
html-keyboard-response,581,1044726,null,"<div style=""font-size:42px;"">PRIEST</div>",null,,word,PRIEST,,,,,,,,,,,,
html-keyboard-response,582,1046241,18.399999976158142,"",32,,word,PRIEST,,,,,,,,,,,,
html-keyboard-response,583,1046444,null,"<div style=""font-size:42px;"">SPHINX</div><img id = ""stim"" ><div class = red_square id = topsquare></div>",null,encoding,word_square,,,0,topsquare,none,true,,,SPHINX,4,,,
html-keyboard-response,584,1046757,null,"<div style=""font-size:42px;"">SPHINX</div>",null,,word,SPHINX,,,,,,,,,,,,
html-keyboard-response,585,1048273,null,"",null,,word,SPHINX,,,,,,,,,,,,
html-keyboard-response,586,1048476,null,"<div style=""font-size:42px;"">PANTHER</div><img id = ""stim"" ><div class = red_square id = bottomsquare></div>",null,encoding,word_square,,,0,bottomsquare,none,true,,,PANTHER,4,,,
html-keyboard-response,587,1048788,null,"<div style=""font-size:42px;"">PANTHER</div>",null,,word,PANTHER,,,,,,,,,,,,
html-keyboard-response,588,1050306,null,"",null,,word,PANTHER,,,,,,,,,,,,
html-keyboard-response,589,1050509,null,"<div style=""font-size:42px;"">JOKER</div><img id = ""stim"" ><div class = green_square id = bottomsquare></div>",null,encoding,word_square,,,1,bottomsquare,32,true,,,JOKER,4,,,
html-keyboard-response,590,1050823,100.60000002384186,"<div style=""font-size:42px;"">JOKER</div>",32,,word,JOKER,,,,,,,,,,,,
html-keyboard-response,591,1052339,null,"",null,,word,JOKER,,,,,,,,,,,,
html-keyboard-response,592,1052543,null,"<div style=""font-size:42px;"">PAPER</div><img id = ""stim"" ><div class = green_square id = topsquare></div>",null,encoding,word_square,,,1,topsquare,32,true,,,PAPER,4,,,
html-keyboard-response,593,1052855,100.5,"<div style=""font-size:42px;"">PAPER</div>",32,,word,PAPER,,,,,,,,,,,,
html-keyboard-response,594,1054367,null,"",null,,word,PAPER,,,,,,,,,,,,
html-keyboard-response,595,1054584,null,"<div style=""font-size:42px;"">JUDGE</div><img id = ""stim"" ><div class = green_square id = bottomsquare></div>",null,encoding,word_square,,,1,bottomsquare,32,true,,,JUDGE,4,,,
html-keyboard-response,596,1054894,143.60000002384186,"<div style=""font-size:42px;"">JUDGE</div>",32,,word,JUDGE,,,,,,,,,,,,
html-keyboard-response,597,1056401,null,"",null,,word,JUDGE,,,,,,,,,,,,
html-keyboard-response,598,1056615,null,"<div style=""font-size:42px;"">JELLY</div><img id = ""stim"" ><div class = red_square id = topsquare></div>",null,encoding,word_square,,,0,topsquare,none,true,,,JELLY,4,,,
html-keyboard-response,599,1056928,null,"<div style=""font-size:42px;"">JELLY</div>",null,,word,JELLY,,,,,,,,,,,,
html-keyboard-response,600,1058440,null,"",null,,word,JELLY,,,,,,,,,,,,
html-keyboard-response,601,1058644,null,"<div style=""font-size:42px;"">GRAVE</div><img id = ""stim"" ><div class = green_square id = topsquare></div>",null,encoding,word_square,,,1,topsquare,32,true,,,GRAVE,4,,,
html-keyboard-response,602,1058956,70.39999997615814,"<div style=""font-size:42px;"">GRAVE</div>",32,,word,GRAVE,,,,,,,,,,,,
html-keyboard-response,603,1060466,null,"",null,,word,GRAVE,,,,,,,,,,,,
html-keyboard-response,604,1060671,null,"<div style=""font-size:42px;"">TOMBSTONE</div><img id = ""stim"" ><div class = green_square id = bottomsquare></div>",null,encoding,word_square,,,1,bottomsquare,32,true,,,TOMBSTONE,4,,,
html-keyboard-response,605,1060982,190.69999992847443,"<div style=""font-size:42px;"">TOMBSTONE</div>",32,,word,TOMBSTONE,,,,,,,,,,,,
html-keyboard-response,606,1062497,null,"",null,,word,TOMBSTONE,,,,,,,,,,,,
html-keyboard-response,607,1062700,null,"<div style=""font-size:42px;"">DRILL</div><img id = ""stim"" ><div class = red_square id = bottomsquare></div>",null,encoding,word_square,,,0,bottomsquare,none,true,,,DRILL,4,,,
html-keyboard-response,608,1063011,null,"<div style=""font-size:42px;"">DRILL</div>",null,,word,DRILL,,,,,,,,,,,,
html-keyboard-response,609,1064523,null,"",null,,word,DRILL,,,,,,,,,,,,
html-keyboard-response,610,1064727,null,"<div style=""font-size:42px;"">CONCRETE</div><img id = ""stim"" ><div class = red_square id = topsquare></div>",null,encoding,word_square,,,0,topsquare,none,true,,,CONCRETE,4,,,
html-keyboard-response,611,1065039,null,"<div style=""font-size:42px;"">CONCRETE</div>",null,,word,CONCRETE,,,,,,,,,,,,
html-keyboard-response,612,1066547,null,"",null,,word,CONCRETE,,,,,,,,,,,,
call-function,613,1066548,,"",,,,,,,,,,,,,,,,
html-keyboard-response,614,1066649,null,"",null,,,,,,,,,,,,,,,
math-period,615,1067891,2289.2000000476837,"",,,,,,,,,,,4,,,,,
html-keyboard-response,616,1067994,null,"",null,,,,,,,,,,,,,,,
math-period,617,1070517,7988.600000023842,"",,,,,,,,,,,3,,,,,
html-keyboard-response,618,1070633,null,"",null,,,,,,,,,,,,,,,
math-period,619,1071723,1988.4999998807907,"",,,,,,,,,,,4,,,,,
html-keyboard-response,620,1071825,null,"",null,,,,,,,,,,,,,,,
math-period,621,1072943,2035,"",,,,,,,,,,,6,,,,,
html-keyboard-response,622,1073051,null,"",null,,,,,,,,,,,,,,,
math-period,623,1074387,2401.1999999284744,"",,,,,,,,,,,5,,,,,
html-keyboard-response,624,1074501,null,"",null,,,,,,,,,,,,,,,
math-period,625,1075543,1868.5000001192093,"",,,,,,,,,,,3,,,,,
html-keyboard-response,626,1075645,null,"",null,,,,,,,,,,,,,,,
math-period,627,1076931,2338.399999976158,"",,,,,,,,,,,5,,,,,
html-keyboard-response,628,1077044,null,"",null,,,,,,,,,,,,,,,
math-period,629,1079095,3878.2000000476837,"",,,,,,,,,,,1,,,,,
html-keyboard-response,630,1079210,null,"",null,,,,,,,,,,,,,,,
math-period,631,1080314,1929.5,"",,,,,,,,,,,2,,,,,
html-keyboard-response,632,1080428,null,"",null,,,,,,,,,,,,,,,
math-period,633,1083177,5155.299999952316,"",,,,,,,,,,,0,,,,,
html-keyboard-response,634,1083281,null,"",null,,,,,,,,,,,,,,,
math-period,635,1084480,2226.4999998807907,"",,,,,,,,,,,4,,,,,
html-keyboard-response,636,1084582,null,"",null,,,,,,,,,,,,,,,
math-period,637,1085825,2320.600000143051,"",,,,,,,,,,,3,,,,,
html-keyboard-response,638,1085931,null,"",null,,,,,,,,,,,,,,,
math-period,639,1087239,2431.0999999046326,"",,,,,,,,,,,6,,,,,
html-keyboard-response,640,1087349,null,"",null,,,,,,,,,,,,,,,
math-period,641,1090314,5713.600000143051,"",,,,,,,,,,,2,,,,,
html-keyboard-response,642,1090416,null,"",null,,,,,,,,,,,,,,,
math-period,643,1090556,null,"",,,,,,,,,,,,,,,,
html-keyboard-response,644,1091570,null,"Recall Period!",null,,,,,,,,,,,,,,,
call-function,645,1091570,,"",,,,,,,,,,,,,,,,
html-keyboard-response,646,1091672,null,"",null,,,,,,,,,,,,,,,
recall-period,647,1093540,11405.50000011921,"",,,,,,,,,,,tombstone,,,,,
html-keyboard-response,648,1093647,null,"",null,,,,,,,,,,,,,,,
recall-period,649,1094490,3567.899999976158,"",,,,,,,,,,,paper,,,,,
html-keyboard-response,650,1094591,null,"",null,,,,,,,,,,,,,,,
recall-period,651,1095323,2652.2000002861023,"",,,,,,,,,,,joker,,,,,
html-keyboard-response,652,1095432,null,"",null,,,,,,,,,,,,,,,
recall-period,653,1096442,2885.4000000953674,"",,,,,,,,,,,judge,,,,,
html-keyboard-response,654,1096558,null,"",null,,,,,,,,,,,,,,,
recall-period,655,1125351,228585.2999998331,"",,,,,,,,,,,priest,,,,,
html-keyboard-response,656,1125453,null,"",null,,,,,,,,,,,,,,,
recall-period,657,1166582,null,"",,,,,,,,,,,,,,,,
html-keyboard-response,658,1167097,null,"Time's Up!",null,,,,,,,,,,,,,,,
html-keyboard-response,659,1168990,1891,"<p> Good job! You have responded correctly to 100% of the trials. </p>
                      <p>Be sure to only press the spacebar if you see a GREEN square, and please keep your accuracy above 80%.</p>
                      <p> Press any key to continue the experiment. </p>",32,,,,,,,,,,,,,,,
html-keyboard-response,660,1173464,4473.299999952316,"<div style=""font-size:48px;"">Press any key to begin list 6 of 16 </div>",32,,,,,,,,,,,,,,,
html-keyboard-response,661,1175989,null,"<div style=""font-size:60px;"">+</div>",null,,,,,,,,,,,,,,,
html-keyboard-response,662,1176192,null,"<div style=""font-size:42px;"">NAPKIN</div><img id = ""stim"" ><div class = red_square id = topsquare></div>",null,encoding,word_square,,,0,topsquare,none,true,,,NAPKIN,5,,,
html-keyboard-response,663,1176504,null,"<div style=""font-size:42px;"">NAPKIN</div>",null,,word,NAPKIN,,,,,,,,,,,,
html-keyboard-response,664,1178017,null,"",null,,word,NAPKIN,,,,,,,,,,,,
html-keyboard-response,665,1178220,null,"<div style=""font-size:42px;"">SURGEON</div><img id = ""stim"" ><div class = red_square id = bottomsquare></div>",null,encoding,word_square,,,0,bottomsquare,none,true,,,SURGEON,5,,,
html-keyboard-response,666,1178531,null,"<div style=""font-size:42px;"">SURGEON</div>",null,,word,SURGEON,,,,,,,,,,,,
html-keyboard-response,667,1180048,null,"",null,,word,SURGEON,,,,,,,,,,,,
html-keyboard-response,668,1180251,null,"<div style=""font-size:42px;"">STAKE</div><img id = ""stim"" ><div class = green_square id = bottomsquare></div>",null,encoding,word_square,,,1,bottomsquare,32,true,,,STAKE,5,,,
html-keyboard-response,669,1180558,145.39999997615814,"<div style=""font-size:42px;"">STAKE</div>",32,,word,STAKE,,,,,,,,,,,,
html-keyboard-response,670,1182068,null,"",null,,word,STAKE,,,,,,,,,,,,
html-keyboard-response,671,1182272,null,"<div style=""font-size:42px;"">CORAL</div><img id = ""stim"" ><div class = green_square id = topsquare></div>",null,encoding,word_square,,,1,topsquare,32,true,,,CORAL,5,,,
html-keyboard-response,672,1182582,185.5,"<div style=""font-size:42px;"">CORAL</div>",32,,word,CORAL,,,,,,,,,,,,
html-keyboard-response,673,1184090,null,"",null,,word,CORAL,,,,,,,,,,,,
html-keyboard-response,674,1184291,null,"<div style=""font-size:42px;"">PEBBLE</div><img id = ""stim"" ><div class = red_square id = topsquare></div>",null,encoding,word_square,,,0,topsquare,none,true,,,PEBBLE,5,,,
html-keyboard-response,675,1184605,null,"<div style=""font-size:42px;"">PEBBLE</div>",null,,word,PEBBLE,,,,,,,,,,,,
html-keyboard-response,676,1186116,null,"",null,,word,PEBBLE,,,,,,,,,,,,
html-keyboard-response,677,1186318,null,"<div style=""font-size:42px;"">STRING</div><img id = ""stim"" ><div class = green_square id = bottomsquare></div>",null,encoding,word_square,,,1,bottomsquare,32,true,,,STRING,5,,,
html-keyboard-response,678,1186631,112.10000002384186,"<div style=""font-size:42px;"">STRING</div>",32,,word,STRING,,,,,,,,,,,,
html-keyboard-response,679,1188144,null,"",null,,word,STRING,,,,,,,,,,,,
html-keyboard-response,680,1188347,null,"<div style=""font-size:42px;"">ATHLETE</div><img id = ""stim"" ><div class = green_square id = topsquare></div>",null,encoding,word_square,,,1,topsquare,32,true,,,ATHLETE,5,,,
html-keyboard-response,681,1188663,106.40000009536743,"<div style=""font-size:42px;"">ATHLETE</div>",32,,word,ATHLETE,,,,,,,,,,,,
html-keyboard-response,682,1190175,null,"",null,,word,ATHLETE,,,,,,,,,,,,
html-keyboard-response,683,1190381,null,"<div style=""font-size:42px;"">COUNTY</div><img id = ""stim"" ><div class = green_square id = bottomsquare></div>",null,encoding,word_square,,,1,bottomsquare,32,true,,,COUNTY,5,,,
html-keyboard-response,684,1190697,127.40000009536743,"<div style=""font-size:42px;"">COUNTY</div>",32,,word,COUNTY,,,,,,,,,,,,
html-keyboard-response,685,1192207,null,"",null,,word,COUNTY,,,,,,,,,,,,
html-keyboard-response,686,1192411,null,"<div style=""font-size:42px;"">NOVEL</div><img id = ""stim"" ><div class = red_square id = bottomsquare></div>",null,encoding,word_square,,,0,bottomsquare,none,true,,,NOVEL,5,,,
html-keyboard-response,687,1192714,null,"<div style=""font-size:42px;"">NOVEL</div>",null,,word,NOVEL,,,,,,,,,,,,
html-keyboard-response,688,1194226,null,"",null,,word,NOVEL,,,,,,,,,,,,
html-keyboard-response,689,1194433,null,"<div style=""font-size:42px;"">MISTER</div><img id = ""stim"" ><div class = red_square id = topsquare></div>",null,encoding,word_square,,,0,topsquare,none,true,,,MISTER,5,,,
html-keyboard-response,690,1194736,null,"<div style=""font-size:42px;"">MISTER</div>",null,,word,MISTER,,,,,,,,,,,,
html-keyboard-response,691,1196246,null,"",null,,word,MISTER,,,,,,,,,,,,
html-keyboard-response,692,1196454,null,"<div style=""font-size:42px;"">PAVEMENT</div><img id = ""stim"" ><div class = green_square id = topsquare></div>",null,encoding,word_square,,,1,topsquare,32,true,,,PAVEMENT,5,,,
html-keyboard-response,693,1196755,95,"<div style=""font-size:42px;"">PAVEMENT</div>",32,,word,PAVEMENT,,,,,,,,,,,,
html-keyboard-response,694,1198270,null,"",null,,word,PAVEMENT,,,,,,,,,,,,
html-keyboard-response,695,1198476,null,"<div style=""font-size:42px;"">SOFA</div><img id = ""stim"" ><div class = red_square id = bottomsquare></div>",null,encoding,word_square,,,0,bottomsquare,none,true,,,SOFA,5,,,
html-keyboard-response,696,1198779,null,"<div style=""font-size:42px;"">SOFA</div>",null,,word,SOFA,,,,,,,,,,,,
html-keyboard-response,697,1200288,null,"",null,,word,SOFA,,,,,,,,,,,,
html-keyboard-response,698,1200495,null,"<div style=""font-size:42px;"">TRIBE</div><img id = ""stim"" ><div class = green_square id = bottomsquare></div>",null,encoding,word_square,,,1,bottomsquare,32,true,,,TRIBE,5,,,
html-keyboard-response,699,1200811,128.70000004768372,"<div style=""font-size:42px;"">TRIBE</div>",32,,word,TRIBE,,,,,,,,,,,,
html-keyboard-response,700,1202319,null,"",null,,word,TRIBE,,,,,,,,,,,,
html-keyboard-response,701,1202527,null,"<div style=""font-size:42px;"">NOMAD</div><img id = ""stim"" ><div class = red_square id = topsquare></div>",null,encoding,word_square,,,0,topsquare,none,true,,,NOMAD,5,,,
html-keyboard-response,702,1202842,null,"<div style=""font-size:42px;"">NOMAD</div>",null,,word,NOMAD,,,,,,,,,,,,
html-keyboard-response,703,1204356,null,"",null,,word,NOMAD,,,,,,,,,,,,
html-keyboard-response,704,1204561,null,"<div style=""font-size:42px;"">DIVER</div><img id = ""stim"" ><div class = red_square id = bottomsquare></div>",null,encoding,word_square,,,0,bottomsquare,none,true,,,DIVER,5,,,
html-keyboard-response,705,1204874,null,"<div style=""font-size:42px;"">DIVER</div>",null,,word,DIVER,,,,,,,,,,,,
html-keyboard-response,706,1206380,null,"",null,,word,DIVER,,,,,,,,,,,,
html-keyboard-response,707,1206587,null,"<div style=""font-size:42px;"">RAFT</div><img id = ""stim"" ><div class = green_square id = topsquare></div>",null,encoding,word_square,,,1,topsquare,32,true,,,RAFT,5,,,
html-keyboard-response,708,1206904,129.20000004768372,"<div style=""font-size:42px;"">RAFT</div>",32,,word,RAFT,,,,,,,,,,,,
html-keyboard-response,709,1208412,null,"",null,,word,RAFT,,,,,,,,,,,,
call-function,710,1208414,,"",,,,,,,,,,,,,,,,
html-keyboard-response,711,1208515,null,"",null,,,,,,,,,,,,,,,
math-period,712,1209892,2627.9999998807907,"",,,,,,,,,,,3,,,,,
html-keyboard-response,713,1210000,null,"",null,,,,,,,,,,,,,,,
math-period,714,1211389,2606.1999999284744,"",,,,,,,,,,,3,,,,,
html-keyboard-response,715,1211490,null,"",null,,,,,,,,,,,,,,,
math-period,716,1212481,1844.5999999046326,"",,,,,,,,,,,3,,,,,
html-keyboard-response,717,1212584,null,"",null,,,,,,,,,,,,,,,
math-period,718,1213751,2153.2000000476837,"",,,,,,,,,,,3,,,,,
html-keyboard-response,719,1213868,null,"",null,,,,,,,,,,,,,,,
math-period,720,1215110,2319.4000000953674,"",,,,,,,,,,,5,,,,,
html-keyboard-response,721,1215216,null,"",null,,,,,,,,,,,,,,,
math-period,722,1216418,2207.100000023842,"",,,,,,,,,,,6,,,,,
html-keyboard-response,723,1216534,null,"",null,,,,,,,,,,,,,,,
math-period,724,1218005,2768.699999809265,"",,,,,,,,,,,2,,,,,
html-keyboard-response,725,1218113,null,"",null,,,,,,,,,,,,,,,
math-period,726,1219828,3159.100000023842,"",,,,,,,,,,,1,,,,,
html-keyboard-response,727,1219939,null,"",null,,,,,,,,,,,,,,,
math-period,728,1221432,2691.0000001192093,"",,,,,,,,,,,5,,,,,
html-keyboard-response,729,1221545,null,"",null,,,,,,,,,,,,,,,
math-period,730,1224452,5097.000000119209,"",,,,,,,,,,,2,,,,,
html-keyboard-response,731,1224557,null,"",null,,,,,,,,,,,,,,,
math-period,732,1225781,2238.7999999523163,"",,,,,,,,,,,3,,,,,
html-keyboard-response,733,1225883,null,"",null,,,,,,,,,,,,,,,
math-period,734,1227350,2686.1999999284744,"",,,,,,,,,,,5,,,,,
html-keyboard-response,735,1227460,null,"",null,,,,,,,,,,,,,,,
math-period,736,1230158,5227.800000071526,"",,,,,,,,,,,3,,,,,
html-keyboard-response,737,1230262,null,"",null,,,,,,,,,,,,,,,
math-period,738,1231912,3159.2000000476837,"",,,,,,,,,,,2,,,,,
html-keyboard-response,739,1232027,null,"",null,,,,,,,,,,,,,,,
math-period,740,1232418,null,"",,,,,,,,,,,,,,,,
html-keyboard-response,741,1233433,null,"Recall Period!",null,,,,,,,,,,,,,,,
call-function,742,1233433,,"",,,,,,,,,,,,,,,,
html-keyboard-response,743,1233535,null,"",null,,,,,,,,,,,,,,,
recall-period,744,1234461,2473.4999997615814,"",,,,,,,,,,,sofa,,,,,
html-keyboard-response,745,1234575,null,"",null,,,,,,,,,,,,,,,
recall-period,746,1235928,5894.899999976158,"",,,,,,,,,,,nomad,,,,,
html-keyboard-response,747,1236042,null,"",null,,,,,,,,,,,,,,,
recall-period,748,1237387,5778.799999713898,"",,,,,,,,,,,tribe,,,,,
html-keyboard-response,749,1237490,null,"",null,,,,,,,,,,,,,,,
recall-period,750,1238344,2694.4999998807907,"",,,,,,,,,,,raft,,,,,
html-keyboard-response,751,1238446,null,"",null,,,,,,,,,,,,,,,
recall-period,752,1239304,2795.8000000715256,"",,,,,,,,,,,sofa,,,,,
html-keyboard-response,753,1239414,null,"",null,,,,,,,,,,,,,,,
recall-period,754,1239983,1766.799999833107,"",,,,,,,,,,,diver,,,,,
html-keyboard-response,755,1240085,null,"",null,,,,,,,,,,,,,,,
recall-period,756,1252210,81851.60000002384,"",,,,,,,,,,,pebble,,,,,
html-keyboard-response,757,1252312,null,"",null,,,,,,,,,,,,,,,
recall-period,758,1271712,127552.09999990463,"",,,,,,,,,,,napkin,,,,,
html-keyboard-response,759,1271821,null,"",null,,,,,,,,,,,,,,,
recall-period,760,1290166,181312.99999904633,"",,,,,,,,,,,sphinx,,,,,
html-keyboard-response,761,1290271,null,"",null,,,,,,,,,,,,,,,
recall-period,762,1308444,23354.200000047684,"",,,,,,,,,,,,,,,,
html-keyboard-response,763,1308958,null,"Time's Up!",null,,,,,,,,,,,,,,,
html-keyboard-response,764,1312203,3243.399999976158,"<p> Good job! You have responded correctly to 100% of the trials. </p>
                      <p>Be sure to only press the spacebar if you see a GREEN square, and please keep your accuracy above 80%.</p>
                      <p> Press any key to continue the experiment. </p>",32,,,,,,,,,,,,,,,
html-keyboard-response,765,1313085,881.3000000715256,"<div style=""font-size:48px;"">Press any key to begin list 7 of 16 </div>",32,,,,,,,,,,,,,,,
html-keyboard-response,766,1315607,null,"<div style=""font-size:60px;"">+</div>",null,,,,,,,,,,,,,,,
html-keyboard-response,767,1315812,null,"<div style=""font-size:42px;"">KEYBOARD</div><img id = ""stim"" ><div class = red_square id = bottomsquare></div>",null,encoding,word_square,,,0,bottomsquare,none,true,,,KEYBOARD,6,,,
html-keyboard-response,768,1316124,null,"<div style=""font-size:42px;"">KEYBOARD</div>",null,,word,KEYBOARD,,,,,,,,,,,,
html-keyboard-response,769,1317636,null,"",null,,word,KEYBOARD,,,,,,,,,,,,
html-keyboard-response,770,1317839,null,"<div style=""font-size:42px;"">AIRCRAFT</div><img id = ""stim"" ><div class = green_square id = topsquare></div>",null,encoding,word_square,,,1,topsquare,32,true,,,AIRCRAFT,6,,,
html-keyboard-response,771,1318151,129.90000009536743,"<div style=""font-size:42px;"">AIRCRAFT</div>",32,,word,AIRCRAFT,,,,,,,,,,,,
html-keyboard-response,772,1319664,null,"",null,,word,AIRCRAFT,,,,,,,,,,,,
html-keyboard-response,773,1319867,null,"<div style=""font-size:42px;"">ROBOT</div><img id = ""stim"" ><div class = green_square id = bottomsquare></div>",null,encoding,word_square,,,1,bottomsquare,32,true,,,ROBOT,6,,,
html-keyboard-response,774,1320179,95.60000002384186,"<div style=""font-size:42px;"">ROBOT</div>",32,,word,ROBOT,,,,,,,,,,,,
html-keyboard-response,775,1321691,null,"",null,,word,ROBOT,,,,,,,,,,,,
html-keyboard-response,776,1321896,null,"<div style=""font-size:42px;"">BULLET</div><img id = ""stim"" ><div class = red_square id = topsquare></div>",null,encoding,word_square,,,0,topsquare,none,true,,,BULLET,6,,,
html-keyboard-response,777,1322205,null,"<div style=""font-size:42px;"">BULLET</div>",null,,word,BULLET,,,,,,,,,,,,
html-keyboard-response,778,1323715,null,"",null,,word,BULLET,,,,,,,,,,,,
html-keyboard-response,779,1323918,null,"<div style=""font-size:42px;"">DRUG</div><img id = ""stim"" ><div class = green_square id = topsquare></div>",null,encoding,word_square,,,1,topsquare,32,true,,,DRUG,6,,,
html-keyboard-response,780,1324232,146.30000007152557,"<div style=""font-size:42px;"">DRUG</div>",32,,word,DRUG,,,,,,,,,,,,
html-keyboard-response,781,1325744,null,"",null,,word,DRUG,,,,,,,,,,,,
html-keyboard-response,782,1325947,null,"<div style=""font-size:42px;"">SPOUSE</div><img id = ""stim"" ><div class = red_square id = bottomsquare></div>",null,encoding,word_square,,,0,bottomsquare,none,true,,,SPOUSE,6,,,
html-keyboard-response,783,1326258,null,"<div style=""font-size:42px;"">SPOUSE</div>",null,,word,SPOUSE,,,,,,,,,,,,
html-keyboard-response,784,1327771,null,"",null,,word,SPOUSE,,,,,,,,,,,,
html-keyboard-response,785,1327974,null,"<div style=""font-size:42px;"">BUSH</div><img id = ""stim"" ><div class = green_square id = bottomsquare></div>",null,encoding,word_square,,,1,bottomsquare,32,true,,,BUSH,6,,,
html-keyboard-response,786,1328288,81.10000002384186,"<div style=""font-size:42px;"">BUSH</div>",32,,word,BUSH,,,,,,,,,,,,
html-keyboard-response,787,1329800,null,"",null,,word,BUSH,,,,,,,,,,,,
html-keyboard-response,788,1330005,null,"<div style=""font-size:42px;"">CEILING</div><img id = ""stim"" ><div class = green_square id = topsquare></div>",null,encoding,word_square,,,1,topsquare,32,true,,,CEILING,6,,,
html-keyboard-response,789,1330317,125.29999995231628,"<div style=""font-size:42px;"">CEILING</div>",32,,word,CEILING,,,,,,,,,,,,
html-keyboard-response,790,1331829,null,"",null,,word,CEILING,,,,,,,,,,,,
html-keyboard-response,791,1332045,null,"<div style=""font-size:42px;"">CARTON</div><img id = ""stim"" ><div class = red_square id = topsquare></div>",null,encoding,word_square,,,0,topsquare,none,true,,,CARTON,6,,,
html-keyboard-response,792,1332357,null,"<div style=""font-size:42px;"">CARTON</div>",null,,word,CARTON,,,,,,,,,,,,
html-keyboard-response,793,1333869,null,"",null,,word,CARTON,,,,,,,,,,,,
html-keyboard-response,794,1334072,null,"<div style=""font-size:42px;"">TIMBER</div><img id = ""stim"" ><div class = red_square id = bottomsquare></div>",null,encoding,word_square,,,0,bottomsquare,none,true,,,TIMBER,6,,,
html-keyboard-response,795,1334385,null,"<div style=""font-size:42px;"">TIMBER</div>",null,,word,TIMBER,,,,,,,,,,,,
html-keyboard-response,796,1335896,null,"",null,,word,TIMBER,,,,,,,,,,,,
html-keyboard-response,797,1336113,null,"<div style=""font-size:42px;"">LEOPARD</div><img id = ""stim"" ><div class = red_square id = topsquare></div>",null,encoding,word_square,,,0,topsquare,none,true,,,LEOPARD,6,,,
html-keyboard-response,798,1336425,null,"<div style=""font-size:42px;"">LEOPARD</div>",null,,word,LEOPARD,,,,,,,,,,,,
html-keyboard-response,799,1337935,null,"",null,,word,LEOPARD,,,,,,,,,,,,
html-keyboard-response,800,1338138,null,"<div style=""font-size:42px;"">HUMAN</div><img id = ""stim"" ><div class = green_square id = bottomsquare></div>",null,encoding,word_square,,,1,bottomsquare,32,true,,,HUMAN,6,,,
html-keyboard-response,801,1338451,124.29999995231628,"<div style=""font-size:42px;"">HUMAN</div>",32,,word,HUMAN,,,,,,,,,,,,
html-keyboard-response,802,1339964,null,"",null,,word,HUMAN,,,,,,,,,,,,
html-keyboard-response,803,1340181,null,"<div style=""font-size:42px;"">CREATURE</div><img id = ""stim"" ><div class = red_square id = bottomsquare></div>",null,encoding,word_square,,,0,bottomsquare,none,true,,,CREATURE,6,,,
html-keyboard-response,804,1340493,null,"<div style=""font-size:42px;"">CREATURE</div>",null,,word,CREATURE,,,,,,,,,,,,
html-keyboard-response,805,1342009,null,"",null,,word,CREATURE,,,,,,,,,,,,
html-keyboard-response,806,1342226,null,"<div style=""font-size:42px;"">LIVER</div><img id = ""stim"" ><div class = red_square id = topsquare></div>",null,encoding,word_square,,,0,topsquare,none,true,,,LIVER,6,,,
html-keyboard-response,807,1342537,null,"<div style=""font-size:42px;"">LIVER</div>",null,,word,LIVER,,,,,,,,,,,,
html-keyboard-response,808,1344052,null,"",null,,word,LIVER,,,,,,,,,,,,
html-keyboard-response,809,1344256,null,"<div style=""font-size:42px;"">BUTCHER</div><img id = ""stim"" ><div class = green_square id = topsquare></div>",null,encoding,word_square,,,1,topsquare,32,true,,,BUTCHER,6,,,
html-keyboard-response,810,1344567,null,"<div style=""font-size:42px;"">BUTCHER</div>",null,,word,BUTCHER,,,,,,,,,,,,
html-keyboard-response,811,1346079,72.89999997615814,"",32,,word,BUTCHER,,,,,,,,,,,,
html-keyboard-response,812,1346282,null,"<div style=""font-size:42px;"">BUCKET</div><img id = ""stim"" ><div class = green_square id = bottomsquare></div>",null,encoding,word_square,,,1,bottomsquare,32,true,,,BUCKET,6,,,
html-keyboard-response,813,1346594,115.79999995231628,"<div style=""font-size:42px;"">BUCKET</div>",32,,word,BUCKET,,,,,,,,,,,,
html-keyboard-response,814,1348097,null,"",null,,word,BUCKET,,,,,,,,,,,,
call-function,815,1348097,,"",,,,,,,,,,,,,,,,
html-keyboard-response,816,1348199,null,"",null,,,,,,,,,,,,,,,
math-period,817,1350547,4507.099999904633,"",,,,,,,,,,,4,,,,,
html-keyboard-response,818,1350658,null,"",null,,,,,,,,,,,,,,,
math-period,819,1351806,2147.5999999046326,"",,,,,,,,,,,3,,,,,
html-keyboard-response,820,1351922,null,"",null,,,,,,,,,,,,,,,
math-period,821,1354837,5525.199999928474,"",,,,,,,,,,,0,,,,,
html-keyboard-response,822,1354948,null,"",null,,,,,,,,,,,,,,,
math-period,823,1356365,2607.2999999523163,"",,,,,,,,,,,1,,,,,
html-keyboard-response,824,1356475,null,"",null,,,,,,,,,,,,,,,
math-period,825,1357954,2762.399999976158,"",,,,,,,,,,,2,,,,,
html-keyboard-response,826,1358056,null,"",null,,,,,,,,,,,,,,,
math-period,827,1359552,2688.2000000476837,"",,,,,,,,,,,2,,,,,
html-keyboard-response,828,1359661,null,"",null,,,,,,,,,,,,,,,
math-period,829,1360708,1943.4000000953674,"",,,,,,,,,,,3,,,,,
html-keyboard-response,830,1360811,null,"",null,,,,,,,,,,,,,,,
math-period,831,1362096,2419.6999999284744,"",,,,,,,,,,,2,,,,,
html-keyboard-response,832,1362203,null,"",null,,,,,,,,,,,,,,,
math-period,833,1363145,1756.1000001430511,"",,,,,,,,,,,3,,,,,
html-keyboard-response,834,1363262,null,"",null,,,,,,,,,,,,,,,
math-period,835,1364471,2238.8000000715256,"",,,,,,,,,,,5,,,,,
html-keyboard-response,836,1364574,null,"",null,,,,,,,,,,,,,,,
math-period,837,1365708,2042.0000001192093,"",,,,,,,,,,,4,,,,,
html-keyboard-response,838,1365818,null,"",null,,,,,,,,,,,,,,,
math-period,839,1366935,2044,"",,,,,,,,,,,4,,,,,
html-keyboard-response,840,1367046,null,"",null,,,,,,,,,,,,,,,
math-period,841,1368142,1979.6000001430511,"",,,,,,,,,,,5,,,,,
html-keyboard-response,842,1368249,null,"",null,,,,,,,,,,,,,,,
math-period,843,1369223,1750.3000000715256,"",,,,,,,,,,,2,,,,,
html-keyboard-response,844,1369328,null,"",null,,,,,,,,,,,,,,,
math-period,845,1370375,1876.3000000715256,"",,,,,,,,,,,4,,,,,
html-keyboard-response,846,1370477,null,"",null,,,,,,,,,,,,,,,
math-period,847,1371442,1755.0000001192093,"",,,,,,,,,,,4,,,,,
html-keyboard-response,848,1371556,null,"",null,,,,,,,,,,,,,,,
math-period,849,1372101,null,"",,,,,,,,,,,,,,,,
html-keyboard-response,850,1373116,null,"Recall Period!",null,,,,,,,,,,,,,,,
call-function,851,1373116,,"",,,,,,,,,,,,,,,,
html-keyboard-response,852,1373218,null,"",null,,,,,,,,,,,,,,,
recall-period,853,1374412,5039.200000405312,"",,,,,,,,,,,robot,,,,,
html-keyboard-response,854,1374523,null,"",null,,,,,,,,,,,,,,,
recall-period,855,1377567,12086.700000286102,"",,,,,,,,,,,aircraft,,,,,
html-keyboard-response,856,1377678,null,"",null,,,,,,,,,,,,,,,
recall-period,857,1378806,4308.399999856949,"",,,,,,,,,,,spouse,,,,,
html-keyboard-response,858,1378909,null,"",null,,,,,,,,,,,,,,,
recall-period,859,1380572,9722.199999690056,"",,,,,,,,,,,butcher,,,,,
html-keyboard-response,860,1380674,null,"",null,,,,,,,,,,,,,,,
recall-period,861,1383382,8790.599999904633,"",,,,,,,,,,,bucket,,,,,
html-keyboard-response,862,1383498,null,"",null,,,,,,,,,,,,,,,
recall-period,863,1387848,27580.299999952316,"",,,,,,,,,,,keyboard,,,,,
html-keyboard-response,864,1387958,null,"",null,,,,,,,,,,,,,,,
recall-period,865,1407889,162638.29999995232,"",,,,,,,,,,,concrete,,,,,
html-keyboard-response,866,1408000,null,"",null,,,,,,,,,,,,,,,
recall-period,867,1448119,null,"",,,,,,,,,,,,,,,,
html-keyboard-response,868,1448635,null,"Time's Up!",null,,,,,,,,,,,,,,,
html-keyboard-response,869,1451430,2793.600000023842,"<p> Good job! You have responded correctly to 100% of the trials. </p>
                      <p>Be sure to only press the spacebar if you see a GREEN square, and please keep your accuracy above 80%.</p>
                      <p> Press any key to continue the experiment. </p>",32,,,,,,,,,,,,,,,
html-keyboard-response,870,1452096,665,"<div style=""font-size:48px;"">Press any key to begin list 8 of 16 </div>",32,,,,,,,,,,,,,,,
html-keyboard-response,871,1454620,null,"<div style=""font-size:60px;"">+</div>",null,,,,,,,,,,,,,,,
html-keyboard-response,872,1454825,null,"<div style=""font-size:42px;"">BARREL</div><img id = ""stim"" ><div class = green_square id = bottomsquare></div>",null,encoding,word_square,,,1,bottomsquare,32,true,,,BARREL,7,,,
html-keyboard-response,873,1455127,186.5,"<div style=""font-size:42px;"">BARREL</div>",32,,word,BARREL,,,,,,,,,,,,
html-keyboard-response,874,1456634,null,"",null,,word,BARREL,,,,,,,,,,,,
html-keyboard-response,875,1456840,null,"<div style=""font-size:42px;"">SPOON</div><img id = ""stim"" ><div class = green_square id = topsquare></div>",null,encoding,word_square,,,1,topsquare,32,true,,,SPOON,7,,,
html-keyboard-response,876,1457151,148.20000004768372,"<div style=""font-size:42px;"">SPOON</div>",32,,word,SPOON,,,,,,,,,,,,
html-keyboard-response,877,1458657,null,"",null,,word,SPOON,,,,,,,,,,,,
html-keyboard-response,878,1458873,null,"<div style=""font-size:42px;"">PARTY</div><img id = ""stim"" ><div class = red_square id = topsquare></div>",null,encoding,word_square,,,0,topsquare,none,true,,,PARTY,7,,,
html-keyboard-response,879,1459182,null,"<div style=""font-size:42px;"">PARTY</div>",null,,word,PARTY,,,,,,,,,,,,
html-keyboard-response,880,1460694,null,"",null,,word,PARTY,,,,,,,,,,,,
html-keyboard-response,881,1460912,null,"<div style=""font-size:42px;"">UMPIRE</div><img id = ""stim"" ><div class = red_square id = bottomsquare></div>",null,encoding,word_square,,,0,bottomsquare,none,true,,,UMPIRE,7,,,
html-keyboard-response,882,1461222,null,"<div style=""font-size:42px;"">UMPIRE</div>",null,,word,UMPIRE,,,,,,,,,,,,
html-keyboard-response,883,1462737,null,"",null,,word,UMPIRE,,,,,,,,,,,,
html-keyboard-response,884,1462939,null,"<div style=""font-size:42px;"">FRIEND</div><img id = ""stim"" ><div class = green_square id = bottomsquare></div>",null,encoding,word_square,,,1,bottomsquare,32,true,,,FRIEND,7,,,
html-keyboard-response,885,1463253,295.3000000715256,"<div style=""font-size:42px;"">FRIEND</div>",32,,word,FRIEND,,,,,,,,,,,,
html-keyboard-response,886,1464765,null,"",null,,word,FRIEND,,,,,,,,,,,,
html-keyboard-response,887,1464983,null,"<div style=""font-size:42px;"">ROBIN</div><img id = ""stim"" ><div class = red_square id = topsquare></div>",null,encoding,word_square,,,0,topsquare,none,true,,,ROBIN,7,,,
html-keyboard-response,888,1465295,null,"<div style=""font-size:42px;"">ROBIN</div>",null,,word,ROBIN,,,,,,,,,,,,
html-keyboard-response,889,1466810,null,"",null,,word,ROBIN,,,,,,,,,,,,
html-keyboard-response,890,1467013,null,"<div style=""font-size:42px;"">SHEPHERD</div><img id = ""stim"" ><div class = red_square id = bottomsquare></div>",null,encoding,word_square,,,0,bottomsquare,none,true,,,SHEPHERD,7,,,
html-keyboard-response,891,1467326,null,"<div style=""font-size:42px;"">SHEPHERD</div>",null,,word,SHEPHERD,,,,,,,,,,,,
html-keyboard-response,892,1468837,null,"",null,,word,SHEPHERD,,,,,,,,,,,,
html-keyboard-response,893,1469054,null,"<div style=""font-size:42px;"">TRUCK</div><img id = ""stim"" ><div class = red_square id = topsquare></div>",null,encoding,word_square,,,0,topsquare,none,true,,,TRUCK,7,,,
html-keyboard-response,894,1469366,null,"<div style=""font-size:42px;"">TRUCK</div>",null,,word,TRUCK,,,,,,,,,,,,
html-keyboard-response,895,1470877,null,"",null,,word,TRUCK,,,,,,,,,,,,
html-keyboard-response,896,1471097,null,"<div style=""font-size:42px;"">JAPAN</div><img id = ""stim"" ><div class = green_square id = topsquare></div>",null,encoding,word_square,,,1,topsquare,32,true,,,JAPAN,7,,,
html-keyboard-response,897,1471413,174.79999995231628,"<div style=""font-size:42px;"">JAPAN</div>",32,,word,JAPAN,,,,,,,,,,,,
html-keyboard-response,898,1472921,null,"",null,,word,JAPAN,,,,,,,,,,,,
html-keyboard-response,899,1473127,null,"<div style=""font-size:42px;"">ASIA</div><img id = ""stim"" ><div class = green_square id = bottomsquare></div>",null,encoding,word_square,,,1,bottomsquare,32,true,,,ASIA,7,,,
html-keyboard-response,900,1473442,82.5,"<div style=""font-size:42px;"">ASIA</div>",32,,word,ASIA,,,,,,,,,,,,
html-keyboard-response,901,1474954,null,"",null,,word,ASIA,,,,,,,,,,,,
html-keyboard-response,902,1475158,null,"<div style=""font-size:42px;"">SCALPEL</div><img id = ""stim"" ><div class = red_square id = bottomsquare></div>",null,encoding,word_square,,,0,bottomsquare,none,true,,,SCALPEL,7,,,
html-keyboard-response,903,1475471,null,"<div style=""font-size:42px;"">SCALPEL</div>",null,,word,SCALPEL,,,,,,,,,,,,
html-keyboard-response,904,1476984,null,"",null,,word,SCALPEL,,,,,,,,,,,,
html-keyboard-response,905,1477202,null,"<div style=""font-size:42px;"">SEAGULL</div><img id = ""stim"" ><div class = green_square id = topsquare></div>",null,encoding,word_square,,,1,topsquare,32,true,,,SEAGULL,7,,,
html-keyboard-response,906,1477513,144.10000002384186,"<div style=""font-size:42px;"">SEAGULL</div>",32,,word,SEAGULL,,,,,,,,,,,,
html-keyboard-response,907,1479027,null,"",null,,word,SEAGULL,,,,,,,,,,,,
html-keyboard-response,908,1479244,null,"<div style=""font-size:42px;"">SCARECROW</div><img id = ""stim"" ><div class = red_square id = topsquare></div>",null,encoding,word_square,,,0,topsquare,none,true,,,SCARECROW,7,,,
html-keyboard-response,909,1479557,null,"<div style=""font-size:42px;"">SCARECROW</div>",null,,word,SCARECROW,,,,,,,,,,,,
html-keyboard-response,910,1481069,null,"",null,,word,SCARECROW,,,,,,,,,,,,
html-keyboard-response,911,1481272,null,"<div style=""font-size:42px;"">PAINTING</div><img id = ""stim"" ><div class = green_square id = bottomsquare></div>",null,encoding,word_square,,,1,bottomsquare,32,true,,,PAINTING,7,,,
html-keyboard-response,912,1481584,108.79999995231628,"<div style=""font-size:42px;"">PAINTING</div>",32,,word,PAINTING,,,,,,,,,,,,
html-keyboard-response,913,1483096,null,"",null,,word,PAINTING,,,,,,,,,,,,
html-keyboard-response,914,1483301,null,"<div style=""font-size:42px;"">VESSEL</div><img id = ""stim"" ><div class = green_square id = topsquare></div>",null,encoding,word_square,,,1,topsquare,32,true,,,VESSEL,7,,,
html-keyboard-response,915,1483612,143,"<div style=""font-size:42px;"">VESSEL</div>",32,,word,VESSEL,,,,,,,,,,,,
html-keyboard-response,916,1485125,null,"",null,,word,VESSEL,,,,,,,,,,,,
html-keyboard-response,917,1485329,null,"<div style=""font-size:42px;"">ANCHOR</div><img id = ""stim"" ><div class = red_square id = bottomsquare></div>",null,encoding,word_square,,,0,bottomsquare,none,true,,,ANCHOR,7,,,
html-keyboard-response,918,1485640,null,"<div style=""font-size:42px;"">ANCHOR</div>",null,,word,ANCHOR,,,,,,,,,,,,
html-keyboard-response,919,1487152,null,"",null,,word,ANCHOR,,,,,,,,,,,,
call-function,920,1487153,,"",,,,,,,,,,,,,,,,
html-keyboard-response,921,1487255,null,"",null,,,,,,,,,,,,,,,
math-period,922,1488965,3114.899999976158,"",,,,,,,,,,,4,,,,,
html-keyboard-response,923,1489072,null,"",null,,,,,,,,,,,,,,,
math-period,924,1490106,1834.7999999523163,"",,,,,,,,,,,3,,,,,
html-keyboard-response,925,1490209,null,"",null,,,,,,,,,,,,,,,
math-period,926,1492307,3928.899999976158,"",,,,,,,,,,,1,,,,,
html-keyboard-response,927,1492410,null,"",null,,,,,,,,,,,,,,,
math-period,928,1494528,3972.600000023842,"",,,,,,,,,,,1,,,,,
html-keyboard-response,929,1494642,null,"",null,,,,,,,,,,,,,,,
math-period,930,1495956,2366.899999976158,"",,,,,,,,,,,1,,,,,
html-keyboard-response,931,1496060,null,"",null,,,,,,,,,,,,,,,
math-period,932,1498607,4741.200000047684,"",,,,,,,,,,,0,,,,,
html-keyboard-response,933,1498709,null,"",null,,,,,,,,,,,,,,,
math-period,934,1499788,1929.6999999284744,"",,,,,,,,,,,3,,,,,
html-keyboard-response,935,1499892,null,"",null,,,,,,,,,,,,,,,
math-period,936,1501032,2055.600000143051,"",,,,,,,,,,,4,,,,,
html-keyboard-response,937,1501144,null,"",null,,,,,,,,,,,,,,,
math-period,938,1502249,1989.3999999761581,"",,,,,,,,,,,4,,,,,
html-keyboard-response,939,1502360,null,"",null,,,,,,,,,,,,,,,
math-period,940,1503632,2282.1999999284744,"",,,,,,,,,,,1,,,,,
html-keyboard-response,941,1503735,null,"",null,,,,,,,,,,,,,,,
